pos,corr_resp,trials_3.thisRepN,trials_3.thisTrialN,trials_3.thisN,trials_3.thisIndex,trials.thisRepN,trials.thisTrialN,trials.thisN,trials.thisIndex,trials_2.thisRepN,trials_2.thisTrialN,trials_2.thisN,trials_2.thisIndex,fixation.started,line1.started,line2.started,line3.started,line4.started,fixation.stopped,probe.started,key_resp.started,key_resp.keys,key_resp.corr,key_resp.rt,key_resp.duration,participant,session,date,expName,psychopyVersion,frameRate,
-50,x,0,0,0,0,0,0,0,0,,,,,29.79773520003073,30.782147599966265,30.782147599966265,30.782147599966265,30.782147599966265,30.813917099963874,31.7963723000139,31.7963723000139,x,1,0.46597519994247705,None,1st,001,2023-10-09_11h26.41.525,Tutorial4_MotorSequenceLearning,2023.1.3,60.00628869296868,
150,v,0,0,0,0,0,1,1,1,,,,,32.312831299961545,33.31416830001399,33.31416830001399,33.31416830001399,33.31416830001399,33.332346900017,34.29617430001963,34.29617430001963,v,1,0.3978760000318289,None,1st,001,2023-10-09_11h26.41.525,Tutorial4_MotorSequenceLearning,2023.1.3,60.00628869296868,
50,c,0,0,0,0,0,2,2,2,,,,,34.72951680002734,35.729498800006695,35.729498800006695,35.729498800006695,35.729498800006695,35.74895569996443,36.72984499996528,36.72984499996528,c,1,0.3486144000198692,None,1st,001,2023-10-09_11h26.41.525,Tutorial4_MotorSequenceLearning,2023.1.3,60.00628869296868,
-150,z,0,0,0,0,0,3,3,3,,,,,37.113928799983114,38.112843599985354,38.112843599985354,38.112843599985354,38.112843599985354,38.13227339996956,39.11314479995053,39.11314479995053,z,1,0.3462063000770286,None,1st,001,2023-10-09_11h26.41.525,Tutorial4_MotorSequenceLearning,2023.1.3,60.00628869296868,
-50,x,0,0,0,0,1,0,4,0,,,,,39.48206910002045,40.49751449993346,40.49751449993346,40.49751449993346,40.49751449993346,40.49751449993346,41.51314429997001,41.51314429997001,x,1,0.3535113000543788,None,1st,001,2023-10-09_11h26.41.525,Tutorial4_MotorSequenceLearning,2023.1.3,60.00628869296868,
150,v,0,0,0,0,1,1,5,1,,,,,41.91575449996162,42.913951999973506,42.913951999973506,42.913951999973506,42.913951999973506,42.94669529993553,43.91343129996676,43.91343129996676,v,1,0.43676059995777905,None,1st,001,2023-10-09_11h26.41.525,Tutorial4_MotorSequenceLearning,2023.1.3,60.00628869296868,
50,c,0,0,0,0,1,2,6,2,,,,,44.398723599966615,45.39658179995604,45.39658179995604,45.39658179995604,45.39658179995604,45.415253299986944,46.396898700040765,46.396898700040765,c,1,0.3698611999861896,None,1st,001,2023-10-09_11h26.41.525,Tutorial4_MotorSequenceLearning,2023.1.3,60.00628869296868,
-150,z,0,0,0,0,1,3,7,3,,,,,46.799141100025736,47.796307699987665,47.796307699987665,47.796307699987665,47.796307699987665,47.81535279995296,48.81404389999807,48.81404389999807,z,1,0.32206180004868656,None,1st,001,2023-10-09_11h26.41.525,Tutorial4_MotorSequenceLearning,2023.1.3,60.00628869296868,
-50,x,0,0,0,0,2,0,8,0,,,,,49.18196720001288,50.17938430001959,50.17938430001959,50.17938430001959,50.17938430001959,50.19937329995446,51.196277700015344,51.196277700015344,x,1,0.27713239996228367,None,1st,001,2023-10-09_11h26.41.525,Tutorial4_MotorSequenceLearning,2023.1.3,60.00628869296868,
150,v,0,0,0,0,2,1,9,1,,,,,51.51520709996112,52.52954070002306,52.52954070002306,52.52954070002306,52.52954070002306,52.52954070002306,53.53067669994198,53.53067669994198,v,1,0.33742519991938025,None,1st,001,2023-10-09_11h26.41.525,Tutorial4_MotorSequenceLearning,2023.1.3,60.00628869296868,
50,c,0,0,0,0,2,2,10,2,,,,,53.898464799975045,54.89617449999787,54.89617449999787,54.89617449999787,54.89617449999787,54.91586369997822,55.92980289994739,55.92980289994739,c,1,0.2605956000043079,None,1st,001,2023-10-09_11h26.41.525,Tutorial4_MotorSequenceLearning,2023.1.3,60.00628869296868,
-150,z,0,0,0,0,2,3,11,3,,,,,56.232124499976635,57.22955859999638,57.22955859999638,57.22955859999638,57.22955859999638,57.24877990002278,58.24743700004183,58.24743700004183,z,1,0.3169600999681279,None,1st,001,2023-10-09_11h26.41.525,Tutorial4_MotorSequenceLearning,2023.1.3,60.00628869296868,
-50,x,0,0,0,0,3,0,12,0,,,,,58.598327399929985,59.59594469994772,59.59594469994772,59.59594469994772,59.59594469994772,59.61560120002832,60.62945280002896,60.62945280002896,x,1,0.35435190005227923,None,1st,001,2023-10-09_11h26.41.525,Tutorial4_MotorSequenceLearning,2023.1.3,60.00628869296868,
150,v,0,0,0,0,3,1,13,1,,,,,61.031705099972896,62.03103710000869,62.03103710000869,62.03103710000869,62.03103710000869,62.050560600007884,63.04722750000656,63.04722750000656,v,1,0.2820818000473082,None,1st,001,2023-10-09_11h26.41.525,Tutorial4_MotorSequenceLearning,2023.1.3,60.00628869296868,
50,c,0,0,0,0,3,2,14,2,,,,,63.36299860000145,64.36266119999345,64.36266119999345,64.36266119999345,64.36266119999345,64.38194939994719,65.36264519998804,65.36264519998804,c,1,0.28934939997270703,None,1st,001,2023-10-09_11h26.41.525,Tutorial4_MotorSequenceLearning,2023.1.3,60.00628869296868,
-150,z,0,0,0,0,3,3,15,3,,,,,65.6816348999273,66.67946090002079,66.67946090002079,66.67946090002079,66.67946090002079,66.6983061999781,67.6963857000228,67.6963857000228,z,1,0.3164502999279648,None,1st,001,2023-10-09_11h26.41.525,Tutorial4_MotorSequenceLearning,2023.1.3,60.00628869296868,
-50,x,0,0,0,0,4,0,16,0,,,,,68.04879189992789,69.04596569994465,69.04596569994465,69.04596569994465,69.04596569994465,69.0652997000143,70.06247959996108,70.06247959996108,x,1,0.5288571000564843,None,1st,001,2023-10-09_11h26.41.525,Tutorial4_MotorSequenceLearning,2023.1.3,60.00628869296868,
150,v,0,0,0,0,4,1,17,1,,,,,70.63166409998666,71.64593570004217,71.64593570004217,71.64593570004217,71.64593570004217,71.64593570004217,72.64842019998468,72.64842019998468,v,1,0.37548529997002333,None,1st,001,2023-10-09_11h26.41.525,Tutorial4_MotorSequenceLearning,2023.1.3,60.00628869296868,
50,c,0,0,0,0,4,2,18,2,,,,,73.06261449994054,74.06356020004023,74.06356020004023,74.06356020004023,74.06356020004023,74.08195639995392,75.04576479992829,75.04576479992829,c,1,0.3179265999933705,None,1st,001,2023-10-09_11h26.41.525,Tutorial4_MotorSequenceLearning,2023.1.3,60.00628869296868,
-150,z,0,0,0,0,4,3,19,3,,,,,75.39576969994232,76.39592000003904,76.39592000003904,76.39592000003904,76.39592000003904,76.41501570004039,77.3958104000194,77.3958104000194,z,1,0.3078788999700919,None,1st,001,2023-10-09_11h26.41.525,Tutorial4_MotorSequenceLearning,2023.1.3,60.00628869296868,
-50,x,0,0,0,0,5,0,20,0,,,,,77.73169009992853,78.7297543999739,78.7297543999739,78.7297543999739,78.7297543999739,78.74837889999617,79.76289549993817,79.76289549993817,x,1,0.3073741999687627,None,1st,001,2023-10-09_11h26.41.525,Tutorial4_MotorSequenceLearning,2023.1.3,60.00628869296868,
150,v,0,0,0,0,5,1,21,1,,,,,80.12912920000963,81.12911650002934,81.12911650002934,81.12911650002934,81.12911650002934,81.1484696000116,82.13484149996657,82.13484149996657,v,1,0.33104289998300374,None,1st,001,2023-10-09_11h26.41.525,Tutorial4_MotorSequenceLearning,2023.1.3,60.00628869296868,
50,c,0,0,0,0,5,2,22,2,,,,,82.51507249998394,83.52905350003857,83.52905350003857,83.52905350003857,83.52905350003857,83.52905350003857,84.529237599927,84.529237599927,c,1,0.32254639989696443,None,1st,001,2023-10-09_11h26.41.525,Tutorial4_MotorSequenceLearning,2023.1.3,60.00628869296868,
-150,z,0,0,0,0,5,3,23,3,,,,,84.8982369999867,85.8958610999398,85.8958610999398,85.8958610999398,85.8958610999398,85.91502279997803,86.89564020000398,86.89564020000398,z,1,0.41984380001667887,None,1st,001,2023-10-09_11h26.41.525,Tutorial4_MotorSequenceLearning,2023.1.3,60.00628869296868,
-50,x,0,0,0,0,6,0,24,0,,,,,87.34588089992758,88.34582099993713,88.34582099993713,88.34582099993713,88.34582099993713,88.36481309996452,89.33146300003864,89.33146300003864,x,1,0.3403585000196472,None,1st,001,2023-10-09_11h26.41.525,Tutorial4_MotorSequenceLearning,2023.1.3,60.00628869296868,
150,v,0,0,0,0,6,1,25,1,,,,,89.6981638999423,90.71253909997176,90.71253909997176,90.71253909997176,90.71253909997176,90.71253909997176,91.71573559998069,91.71573559998069,v,1,0.39178190007805824,None,1st,001,2023-10-09_11h26.41.525,Tutorial4_MotorSequenceLearning,2023.1.3,60.00628869296868,
50,c,0,0,0,0,6,2,26,2,,,,,92.14579169999342,93.1456606000429,93.1456606000429,93.1456606000429,93.1456606000429,93.16489150002599,94.16321349993814,94.16321349993814,c,1,0.3103457000106573,None,1st,001,2023-10-09_11h26.41.525,Tutorial4_MotorSequenceLearning,2023.1.3,60.00628869296868,
-150,z,0,0,0,0,6,3,27,3,,,,,94.51222779997624,95.51245909999125,95.51245909999125,95.51245909999125,95.51245909999125,95.53139160003047,96.51498159999028,96.51498159999028,z,1,0.3126144000561908,None,1st,001,2023-10-09_11h26.41.525,Tutorial4_MotorSequenceLearning,2023.1.3,60.00628869296868,
-50,x,0,0,0,0,7,0,28,0,,,,,96.8627563000191,97.86230459995568,97.86230459995568,97.86230459995568,97.86230459995568,97.88152619998436,98.86244319996331,98.86244319996331,x,1,0.31338619999587536,None,1st,001,2023-10-09_11h26.41.525,Tutorial4_MotorSequenceLearning,2023.1.3,60.00628869296868,
150,v,0,0,0,0,7,1,29,1,,,,,99.19806359999347,100.19595239998307,100.19595239998307,100.19595239998307,100.19595239998307,100.21489750000183,101.21229439997114,101.21229439997114,v,1,0.42118330008815974,None,1st,001,2023-10-09_11h26.41.525,Tutorial4_MotorSequenceLearning,2023.1.3,60.00628869296868,
50,c,0,0,0,0,7,2,30,2,,,,,101.66502850002144,102.66222559998278,102.66222559998278,102.66222559998278,102.66222559998278,102.68141860002652,103.66260269994382,103.66260269994382,c,1,0.28163610002957284,None,1st,001,2023-10-09_11h26.41.525,Tutorial4_MotorSequenceLearning,2023.1.3,60.00628869296868,
-150,z,0,0,0,0,7,3,31,3,,,,,103.97904529992957,104.96510949998628,104.96510949998628,104.96510949998628,104.96510949998628,104.981469499995,105.97907619993202,105.97907619993202,z,1,0.40621839999221265,None,1st,001,2023-10-09_11h26.41.525,Tutorial4_MotorSequenceLearning,2023.1.3,60.00628869296868,
-50,x,0,0,0,0,8,0,32,0,,,,,106.43241619993933,107.44594220002182,107.44594220002182,107.44594220002182,107.44594220002182,107.44594220002182,108.44842160004191,108.44842160004191,x,1,0.2739172999281436,None,1st,001,2023-10-09_11h26.41.525,Tutorial4_MotorSequenceLearning,2023.1.3,60.00628869296868,
150,v,0,0,0,0,8,1,33,1,,,,,108.76281979994383,109.74674570001662,109.74674570001662,109.74674570001662,109.74674570001662,109.76551779999863,110.76239569997415,110.76239569997415,v,1,0.21528420003596693,None,1st,001,2023-10-09_11h26.41.525,Tutorial4_MotorSequenceLearning,2023.1.3,60.00628869296868,
50,c,0,0,0,0,8,2,34,2,,,,,111.02953109994996,112.02904960000888,112.02904960000888,112.02904960000888,112.02904960000888,112.04795839998405,113.02915990003385,113.02915990003385,c,1,0.33683909999672323,None,1st,001,2023-10-09_11h26.41.525,Tutorial4_MotorSequenceLearning,2023.1.3,60.00628869296868,
-150,z,0,0,0,0,8,3,35,3,,,,,113.4145325999707,114.41222930001095,114.41222930001095,114.41222930001095,114.41222930001095,114.43119189993013,115.42917280003894,115.42917280003894,z,1,0.3149116999702528,None,1st,001,2023-10-09_11h26.41.525,Tutorial4_MotorSequenceLearning,2023.1.3,60.00628869296868,
-50,x,0,0,0,0,9,0,36,0,,,,,115.79548349999823,116.79582649993245,116.79582649993245,116.79582649993245,116.79582649993245,116.8149244999513,117.8121026000008,117.8121026000008,x,1,0.25214369990862906,None,1st,001,2023-10-09_11h26.41.525,Tutorial4_MotorSequenceLearning,2023.1.3,60.00628869296868,
150,v,0,0,0,0,9,1,37,1,,,,,118.11505649995524,119.11205130000599,119.11205130000599,119.11205130000599,119.11205130000599,119.13233139994554,120.1124315999914,120.1124315999914,v,1,0.28082670003641397,None,1st,001,2023-10-09_11h26.41.525,Tutorial4_MotorSequenceLearning,2023.1.3,60.00628869296868,
50,c,0,0,0,0,9,2,38,2,,,,,120.43153860000893,121.42913479998242,121.42913479998242,121.42913479998242,121.42913479998242,121.4482161999913,122.44548729993403,122.44548729993403,c,1,0.30889029998797923,None,1st,001,2023-10-09_11h26.41.525,Tutorial4_MotorSequenceLearning,2023.1.3,60.00628869296868,
-150,z,0,0,0,0,9,3,39,3,,,,,122.80484619992785,123.81761469994672,123.81761469994672,123.81761469994672,123.81761469994672,123.84552600001916,124.83461909997277,124.83461909997277,z,1,0.249919900088571,None,1st,001,2023-10-09_11h26.41.525,Tutorial4_MotorSequenceLearning,2023.1.3,60.00628869296868,
-50,x,0,0,0,0,10,0,40,0,,,,,125.14540459995624,126.14534599997569,126.14534599997569,126.14534599997569,126.14534599997569,126.16447009996045,127.16196139995009,127.16196139995009,x,1,0.29614639992360026,None,1st,001,2023-10-09_11h26.41.525,Tutorial4_MotorSequenceLearning,2023.1.3,60.00628869296868,
150,v,0,0,0,0,10,1,41,1,,,,,127.48111679998692,128.4955462999642,128.4955462999642,128.4955462999642,128.4955462999642,128.4955462999642,129.5119665999664,129.5119665999664,v,1,0.2560336000751704,None,1st,001,2023-10-09_11h26.41.525,Tutorial4_MotorSequenceLearning,2023.1.3,60.00628869296868,
50,c,0,0,0,0,10,2,42,2,,,,,129.7976566000143,130.7953083999455,130.7953083999455,130.7953083999455,130.7953083999455,130.8145881999517,131.82877839996945,131.82877839996945,c,1,0.3502843000460416,None,1st,001,2023-10-09_11h26.41.525,Tutorial4_MotorSequenceLearning,2023.1.3,60.00628869296868,
-150,z,0,0,0,0,10,3,43,3,,,,,132.2118288000347,133.21227599994745,133.21227599994745,133.21227599994745,133.21227599994745,133.23128019995056,134.19565410003997,134.19565410003997,z,1,0.4038279999513179,None,1st,001,2023-10-09_11h26.41.525,Tutorial4_MotorSequenceLearning,2023.1.3,60.00628869296868,
-50,x,0,0,0,0,11,0,44,0,,,,,134.6477687000297,135.64592179993633,135.64592179993633,135.64592179993633,135.64592179993633,135.66454249992967,136.66202879999764,136.66202879999764,x,1,0.2617364999605343,None,1st,001,2023-10-09_11h26.41.525,Tutorial4_MotorSequenceLearning,2023.1.3,60.00628869296868,
150,v,0,0,0,0,11,1,45,1,,,,,136.94782510004006,137.9455264999997,137.9455264999997,137.9455264999997,137.9455264999997,137.96443249995355,138.961972399964,138.961972399964,v,1,0.29440690006595105,None,1st,001,2023-10-09_11h26.41.525,Tutorial4_MotorSequenceLearning,2023.1.3,60.00628869296868,
50,c,0,0,0,0,11,2,46,2,,,,,139.28113879996818,140.29534289997537,140.29534289997537,140.29534289997537,140.29534289997537,140.29534289997537,141.29532349994406,141.29532349994406,c,1,0.31133040005806834,None,1st,001,2023-10-09_11h26.41.525,Tutorial4_MotorSequenceLearning,2023.1.3,60.00628869296868,
-150,z,0,0,0,0,11,3,47,3,,,,,141.6310916999355,142.64519629999995,142.64519629999995,142.64519629999995,142.64519629999995,142.64519629999995,143.64579680003226,143.64579680003226,z,1,0.2935158999171108,None,1st,001,2023-10-09_11h26.41.525,Tutorial4_MotorSequenceLearning,2023.1.3,60.00628869296868,
-50,x,0,0,0,0,12,0,48,0,,,,,143.98159690003376,144.97858140000608,144.97858140000608,144.97858140000608,144.97858140000608,144.99763590004295,145.98150170000736,145.98150170000736,x,1,0.3110639000078663,None,1st,001,2023-10-09_11h26.41.525,Tutorial4_MotorSequenceLearning,2023.1.3,60.00628869296868,
150,v,0,0,0,0,12,1,49,1,,,,,146.33169969997834,147.32975919998717,147.32975919998717,147.32975919998717,147.32975919998717,147.34776419994887,148.3285079000052,148.3285079000052,v,1,0.3207132000243291,None,1st,001,2023-10-09_11h26.41.525,Tutorial4_MotorSequenceLearning,2023.1.3,60.00628869296868,
50,c,0,0,0,0,12,2,50,2,,,,,148.6975524999434,149.6951675999444,149.6951675999444,149.6951675999444,149.6951675999444,149.71452689997386,150.71179810003377,150.71179810003377,c,1,0.3177940999157727,None,1st,001,2023-10-09_11h26.41.525,Tutorial4_MotorSequenceLearning,2023.1.3,60.00628869296868,
-150,z,0,0,0,0,12,3,51,3,,,,,151.06443379994016,152.07844539999496,152.07844539999496,152.07844539999496,152.07844539999496,152.07844539999496,153.09520979993977,153.09520979993977,z,1,0.31900089990813285,None,1st,001,2023-10-09_11h26.41.525,Tutorial4_MotorSequenceLearning,2023.1.3,60.00628869296868,
-50,x,0,0,0,0,13,0,52,0,,,,,153.464334600023,154.47859800001606,154.47859800001606,154.47859800001606,154.47859800001606,154.47859800001606,155.46227090002503,155.46227090002503,x,1,0.4919596000108868,None,1st,001,2023-10-09_11h26.41.525,Tutorial4_MotorSequenceLearning,2023.1.3,60.00628869296868,
150,v,0,0,0,0,13,1,53,1,,,,,155.9978522999445,157.01183219999075,157.01183219999075,157.01183219999075,157.01183219999075,157.01183219999075,158.01187459996436,158.01187459996436,v,1,0.31992590008303523,None,1st,001,2023-10-09_11h26.41.525,Tutorial4_MotorSequenceLearning,2023.1.3,60.00628869296868,
50,c,0,0,0,0,13,2,54,2,,,,,158.38266340002883,159.37896629993338,159.37896629993338,159.37896629993338,159.37896629993338,159.41230620001443,160.39517479995266,160.39517479995266,c,1,0.27976410009432584,None,1st,001,2023-10-09_11h26.41.525,Tutorial4_MotorSequenceLearning,2023.1.3,60.00628869296868,
-150,z,0,0,0,0,13,3,55,3,,,,,160.71220249996986,161.71271059999708,161.71271059999708,161.71271059999708,161.71271059999708,161.73085429996718,162.71163609996438,162.71163609996438,z,1,0.30669410002883524,None,1st,001,2023-10-09_11h26.41.525,Tutorial4_MotorSequenceLearning,2023.1.3,60.00628869296868,
-50,x,0,0,0,0,14,0,56,0,,,,,163.06420160003472,164.0618112999946,164.0618112999946,164.0618112999946,164.0618112999946,164.08238419995178,165.07830279995687,165.07830279995687,x,1,0.29958049999549985,None,1st,001,2023-10-09_11h26.41.525,Tutorial4_MotorSequenceLearning,2023.1.3,60.00628869296868,
150,v,0,0,0,0,14,1,57,1,,,,,165.39730099996086,166.41159349994268,166.41159349994268,166.41159349994268,166.41159349994268,166.41159349994268,167.41153969999868,167.41153969999868,v,1,0.2450817000353709,None,1st,001,2023-10-09_11h26.41.525,Tutorial4_MotorSequenceLearning,2023.1.3,60.00628869296868,
50,c,0,0,0,0,14,2,58,2,,,,,167.69748800003435,168.7115749999648,168.7115749999648,168.7115749999648,168.7115749999648,168.7115749999648,169.71231179998722,169.71231179998722,c,1,0.2953333000186831,None,1st,001,2023-10-09_11h26.41.525,Tutorial4_MotorSequenceLearning,2023.1.3,60.00628869296868,
-150,z,0,0,0,0,14,3,59,3,,,,,170.0461159000406,171.04534269997384,171.04534269997384,171.04534269997384,171.04534269997384,171.06409050000366,172.03067969996482,172.03067969996482,z,1,0.23937349999323487,None,1st,001,2023-10-09_11h26.41.525,Tutorial4_MotorSequenceLearning,2023.1.3,60.00628869296868,
-50,x,0,0,0,0,15,0,60,0,,,,,172.3139885000419,173.3288713999791,173.3288713999791,173.3288713999791,173.3288713999791,173.3288713999791,174.32836619997397,174.32836619997397,x,1,0.2773966999957338,None,1st,001,2023-10-09_11h26.41.525,Tutorial4_MotorSequenceLearning,2023.1.3,60.00628869296868,
150,v,0,0,0,0,15,1,61,1,,,,,174.64793580002151,175.64544490003027,175.64544490003027,175.64544490003027,175.64544490003027,175.66420460003428,176.67873349995352,176.67873349995352,v,1,0.23971619992516935,None,1st,001,2023-10-09_11h26.41.525,Tutorial4_MotorSequenceLearning,2023.1.3,60.00628869296868,
50,c,0,0,0,0,15,2,62,2,,,,,176.96409389993642,177.96148820000235,177.96148820000235,177.96148820000235,177.96148820000235,177.9806971999351,178.9615344000049,178.9615344000049,c,1,0.3857511000242084,None,1st,001,2023-10-09_11h26.41.525,Tutorial4_MotorSequenceLearning,2023.1.3,60.00628869296868,
-150,z,0,0,0,0,15,3,63,3,,,,,179.3961125999922,180.39530350000132,180.39530350000132,180.39530350000132,180.39530350000132,180.4139817999676,181.39498029998504,181.39498029998504,z,1,0.3456117999739945,None,1st,001,2023-10-09_11h26.41.525,Tutorial4_MotorSequenceLearning,2023.1.3,60.00628869296868,
-50,x,0,0,0,0,16,0,64,0,,,,,181.7781395999482,182.7782708000159,182.7782708000159,182.7782708000159,182.7782708000159,182.79734629997984,183.79507069999818,183.79507069999818,x,1,0.4557805999647826,None,1st,001,2023-10-09_11h26.41.525,Tutorial4_MotorSequenceLearning,2023.1.3,60.00628869296868,
150,v,0,0,0,0,16,1,65,1,,,,,184.29721320001408,185.31147039995994,185.31147039995994,185.31147039995994,185.31147039995994,185.31147039995994,186.3140190000413,186.3140190000413,v,1,0.31697099993471056,None,1st,001,2023-10-09_11h26.41.525,Tutorial4_MotorSequenceLearning,2023.1.3,60.00628869296868,
50,c,0,0,0,0,16,2,66,2,,,,,186.6807426000014,187.69488700001966,187.69488700001966,187.69488700001966,187.69488700001966,187.69488700001966,188.7118365999777,188.7118365999777,c,1,0.27757420006673783,None,1st,001,2023-10-09_11h26.41.525,Tutorial4_MotorSequenceLearning,2023.1.3,60.00628869296868,
-150,z,0,0,0,0,16,3,67,3,,,,,189.02863379998598,190.02833969995845,190.02833969995845,190.02833969995845,190.02833969995845,190.04726939997636,191.01141749997623,191.01141749997623,z,1,0.3400871000485495,None,1st,001,2023-10-09_11h26.41.525,Tutorial4_MotorSequenceLearning,2023.1.3,60.00628869296868,
-50,x,0,0,0,0,17,0,68,0,,,,,191.38074589997996,192.37844819994643,192.37844819994643,192.37844819994643,192.37844819994643,192.39723759994376,193.39479259995278,193.39479259995278,x,1,0.3258198999101296,None,1st,001,2023-10-09_11h26.41.525,Tutorial4_MotorSequenceLearning,2023.1.3,60.00628869296868,
150,v,0,0,0,0,17,1,69,1,,,,,193.74710279994179,194.76148979994468,194.76148979994468,194.76148979994468,194.76148979994468,194.76148979994468,195.7784122999292,195.7784122999292,v,1,0.31153249996714294,None,1st,001,2023-10-09_11h26.41.525,Tutorial4_MotorSequenceLearning,2023.1.3,60.00628869296868,
50,c,0,0,0,0,17,2,70,2,,,,,196.11396370001603,197.11150470003486,197.11150470003486,197.11150470003486,197.11150470003486,197.13080209994223,198.1447368999943,198.1447368999943,c,1,0.3279949000570923,None,1st,001,2023-10-09_11h26.41.525,Tutorial4_MotorSequenceLearning,2023.1.3,60.00628869296868,
-150,z,0,0,0,0,17,3,71,3,,,,,198.51120089995675,199.51150160003453,199.51150160003453,199.51150160003453,199.51150160003453,199.53050510003231,200.51133390003815,200.51133390003815,z,1,0.3394105000188574,None,1st,001,2023-10-09_11h26.41.525,Tutorial4_MotorSequenceLearning,2023.1.3,60.00628869296868,
-50,x,0,0,0,0,18,0,72,0,,,,,200.89469670003746,201.87840409995988,201.87840409995988,201.87840409995988,201.87840409995988,201.89794079994317,202.91196359996684,202.91196359996684,x,1,0.3490937000606209,None,1st,001,2023-10-09_11h26.41.525,Tutorial4_MotorSequenceLearning,2023.1.3,60.00628869296868,
150,v,0,0,0,0,18,1,73,1,,,,,203.28024610003922,204.28067040001042,204.28067040001042,204.28067040001042,204.28067040001042,204.28067040001042,205.29475669993553,205.29475669993553,v,1,0.2759135999949649,None,1st,001,2023-10-09_11h26.41.525,Tutorial4_MotorSequenceLearning,2023.1.3,60.00628869296868,
50,c,0,0,0,0,18,2,74,2,,,,,205.6141507999273,206.61188270000275,206.61188270000275,206.61188270000275,206.61188270000275,206.63096149999183,207.62840799998958,207.62840799998958,c,1,0.33351150003727525,None,1st,001,2023-10-09_11h26.41.525,Tutorial4_MotorSequenceLearning,2023.1.3,60.00628869296868,
-150,z,0,0,0,0,18,3,75,3,,,,,207.99691889993846,208.99461469997186,208.99461469997186,208.99461469997186,208.99461469997186,209.01407000003383,210.01131600001827,210.01131600001827,z,1,0.28261999995447695,None,1st,001,2023-10-09_11h26.41.525,Tutorial4_MotorSequenceLearning,2023.1.3,60.00628869296868,
-50,x,0,0,0,0,19,0,76,0,,,,,210.34459510003217,211.34485430002678,211.34485430002678,211.34485430002678,211.34485430002678,211.36384899995755,212.35024489997886,212.35024489997886,x,1,0.2580411999952048,None,1st,001,2023-10-09_11h26.41.525,Tutorial4_MotorSequenceLearning,2023.1.3,60.00628869296868,
150,v,0,0,0,0,19,1,77,1,,,,,212.6310057999799,213.6447619999526,213.6447619999526,213.6447619999526,213.6447619999526,213.6447619999526,214.645232400042,214.645232400042,v,1,0.2919916999526322,None,1st,001,2023-10-09_11h26.41.525,Tutorial4_MotorSequenceLearning,2023.1.3,60.00628869296868,
50,c,0,0,0,0,19,2,78,2,,,,,214.96384460001718,215.9615317999851,215.9615317999851,215.9615317999851,215.9615317999851,215.9802677000407,216.97938609996345,216.97938609996345,c,1,0.2740461000939831,None,1st,001,2023-10-09_11h26.41.525,Tutorial4_MotorSequenceLearning,2023.1.3,60.00628869296868,
-150,z,0,0,0,0,19,3,79,3,,,,,217.294458999997,218.29469200002495,218.29469200002495,218.29469200002495,218.29469200002495,218.3139833000023,219.31130329996813,219.31130329996813,z,1,0.3222126999171451,None,1st,001,2023-10-09_11h26.41.525,Tutorial4_MotorSequenceLearning,2023.1.3,60.00628869296868,
-50,x,0,0,0,0,20,0,80,0,,,,,219.68026539997663,220.6790353000397,220.6790353000397,220.6790353000397,220.6790353000397,220.69750330003444,221.6783658999484,221.6783658999484,x,1,0.2828727999003604,None,1st,001,2023-10-09_11h26.41.525,Tutorial4_MotorSequenceLearning,2023.1.3,60.00628869296868,
150,v,0,0,0,0,20,1,81,1,,,,,221.9960599000333,222.99501880002208,222.99501880002208,222.99501880002208,222.99501880002208,223.01363029994536,223.99439090001397,223.99439090001397,v,1,0.27572629996575415,None,1st,001,2023-10-09_11h26.41.525,Tutorial4_MotorSequenceLearning,2023.1.3,60.00628869296868,
50,c,0,0,0,0,20,2,82,2,,,,,224.29681329999585,225.2956299999496,225.2956299999496,225.2956299999496,225.2956299999496,225.3141169999726,226.29500949999783,226.29500949999783,c,1,0.2677333999890834,None,1st,001,2023-10-09_11h26.41.525,Tutorial4_MotorSequenceLearning,2023.1.3,60.00628869296868,
-150,z,0,0,0,0,20,3,83,3,,,,,226.59468750003725,227.60061259998474,227.60061259998474,227.60061259998474,227.60061259998474,227.62776119995397,228.6167174000293,228.6167174000293,z,1,0.25172429997473955,None,1st,001,2023-10-09_11h26.41.525,Tutorial4_MotorSequenceLearning,2023.1.3,60.00628869296868,
-50,x,0,0,0,0,21,0,84,0,,,,,228.91396169993095,229.9117697000038,229.9117697000038,229.9117697000038,229.9117697000038,229.93025169998873,230.9278102000244,230.9278102000244,x,1,0.2741525999736041,None,1st,001,2023-10-09_11h26.41.525,Tutorial4_MotorSequenceLearning,2023.1.3,60.00628869296868,
150,v,0,0,0,0,21,1,85,1,,,,,231.2475134000415,232.2445048999507,232.2445048999507,232.2445048999507,232.2445048999507,232.26429249998182,233.2612333999714,233.2612333999714,v,1,0.304219700046815,None,1st,001,2023-10-09_11h26.41.525,Tutorial4_MotorSequenceLearning,2023.1.3,60.00628869296868,
50,c,0,0,0,0,21,2,86,2,,,,,233.61389889998827,234.61356019997038,234.61356019997038,234.61356019997038,234.61356019997038,234.61356019997038,235.62822620000225,235.62822620000225,c,1,0.29914770007599145,None,1st,001,2023-10-09_11h26.41.525,Tutorial4_MotorSequenceLearning,2023.1.3,60.00628869296868,
-150,z,0,0,0,0,21,3,87,3,,,,,235.96115929994266,236.96112370002083,236.96112370002083,236.96112370002083,236.96112370002083,236.9802746999776,237.97774579992983,237.97774579992983,z,1,0.3178172999760136,None,1st,001,2023-10-09_11h26.41.525,Tutorial4_MotorSequenceLearning,2023.1.3,60.00628869296868,
-50,x,0,0,0,0,22,0,88,0,,,,,238.34705770004075,239.34429569996428,239.34429569996428,239.34429569996428,239.34429569996428,239.36398899997585,240.36152000003494,240.36152000003494,x,1,0.26870639994740486,None,1st,001,2023-10-09_11h26.41.525,Tutorial4_MotorSequenceLearning,2023.1.3,60.00628869296868,
150,v,0,0,0,0,22,1,89,1,,,,,240.6610480999807,241.66103810002096,241.66103810002096,241.66103810002096,241.66103810002096,241.68080279999413,242.66090869996697,242.66090869996697,v,1,0.26791190006770194,None,1st,001,2023-10-09_11h26.41.525,Tutorial4_MotorSequenceLearning,2023.1.3,60.00628869296868,
50,c,0,0,0,0,22,2,90,2,,,,,242.98018670000602,243.9942637999775,243.9942637999775,243.9942637999775,243.9942637999775,243.9942637999775,244.98003879992757,244.98003879992757,c,1,0.28875419998075813,None,1st,001,2023-10-09_11h26.41.525,Tutorial4_MotorSequenceLearning,2023.1.3,60.00628869296868,
-150,z,0,0,0,0,22,3,91,3,,,,,245.31100009998772,246.31091959995683,246.31091959995683,246.31091959995683,246.31091959995683,246.3304317999864,247.32775820000097,247.32775820000097,z,1,0.19428339996375144,None,1st,001,2023-10-09_11h26.41.525,Tutorial4_MotorSequenceLearning,2023.1.3,60.00628869296868,
-50,x,0,0,0,0,23,0,92,0,,,,,247.56349810003303,248.56077240000013,248.56077240000013,248.56077240000013,248.56077240000013,248.58034300000872,249.594328999985,249.594328999985,x,1,0.2780766000505537,None,1st,001,2023-10-09_11h26.41.525,Tutorial4_MotorSequenceLearning,2023.1.3,60.00628869296868,
150,v,0,0,0,0,23,1,93,1,,,,,249.8968202000251,250.91088620002847,250.91088620002847,250.91088620002847,250.91088620002847,250.91088620002847,251.91100650001317,251.91100650001317,v,1,0.5538059000391513,None,1st,001,2023-10-09_11h26.41.525,Tutorial4_MotorSequenceLearning,2023.1.3,60.00628869296868,
50,c,0,0,0,0,23,2,94,2,,,,,252.5133243999444,253.51235480001196,253.51235480001196,253.51235480001196,253.51235480001196,253.53022429998964,254.52788670000155,254.52788670000155,c,1,0.26879420003388077,None,1st,001,2023-10-09_11h26.41.525,Tutorial4_MotorSequenceLearning,2023.1.3,60.00628869296868,
-150,z,0,0,0,0,23,3,95,3,,,,,254.82740820001345,255.82795780000743,255.82795780000743,255.82795780000743,255.82795780000743,255.84656740003265,256.84414439997636,256.84414439997636,z,1,0.5907013000687584,None,1st,001,2023-10-09_11h26.41.525,Tutorial4_MotorSequenceLearning,2023.1.3,60.00628869296868,
-50,x,0,0,0,0,24,0,96,0,,,,,257.47994749993086,258.4776133999694,258.4776133999694,258.4776133999694,258.4776133999694,258.4967536999611,259.51094710000325,259.51094710000325,x,1,0.28523249994032085,None,1st,001,2023-10-09_11h26.41.525,Tutorial4_MotorSequenceLearning,2023.1.3,60.00628869296868,
150,v,0,0,0,0,24,1,97,1,,,,,259.8298209999921,260.84428209997714,260.84428209997714,260.84428209997714,260.84428209997714,260.84428209997714,261.8442734000273,261.8442734000273,v,1,0.26820689998567104,None,1st,001,2023-10-09_11h26.41.525,Tutorial4_MotorSequenceLearning,2023.1.3,60.00628869296868,
50,c,0,0,0,0,24,2,98,2,,,,,262.1698511999566,263.1827301000012,263.1827301000012,263.1827301000012,263.1827301000012,263.21062919998076,264.19941450003535,264.19941450003535,c,1,0.6824577000224963,None,1st,001,2023-10-09_11h26.41.525,Tutorial4_MotorSequenceLearning,2023.1.3,60.00628869296868,
-150,z,0,0,0,0,24,3,99,3,,,,,264.9132366999984,265.91111650003586,265.91111650003586,265.91111650003586,265.91111650003586,265.9298082999885,266.91380570002366,266.91380570002366,z,1,0.3933708999538794,None,1st,001,2023-10-09_11h26.41.525,Tutorial4_MotorSequenceLearning,2023.1.3,60.00628869296868,
-50,x,0,0,0,0,25,0,100,0,,,,,267.34674700000323,268.34413720003795,268.34413720003795,268.34413720003795,268.34413720003795,268.3633919999702,269.34396560001187,269.34396560001187,x,1,0.2981499000452459,None,1st,001,2023-10-09_11h26.41.525,Tutorial4_MotorSequenceLearning,2023.1.3,60.00628869296868,
150,v,0,0,0,0,25,1,101,1,,,,,269.67993390001357,270.69404850003775,270.69404850003775,270.69404850003775,270.69404850003775,270.69404850003775,271.67798489995766,271.67798489995766,v,1,0.28593419992830604,None,1st,001,2023-10-09_11h26.41.525,Tutorial4_MotorSequenceLearning,2023.1.3,60.00628869296868,
50,c,0,0,0,0,25,2,102,2,,,,,271.9963550999528,272.99392030003946,272.99392030003946,272.99392030003946,272.99392030003946,273.01324560004286,273.99492910003755,273.99492910003755,c,1,0.338652899954468,None,1st,001,2023-10-09_11h26.41.525,Tutorial4_MotorSequenceLearning,2023.1.3,60.00628869296868,
-150,z,0,0,0,0,25,3,103,3,,,,,274.37761089997366,275.37738510000054,275.37738510000054,275.37738510000054,275.37738510000054,275.39680380001664,276.3851790999761,276.3851790999761,z,1,0.3322158999508247,None,1st,001,2023-10-09_11h26.41.525,Tutorial4_MotorSequenceLearning,2023.1.3,60.00628869296868,
-50,x,0,0,0,0,26,0,104,0,,,,,276.762969500036,277.777355600032,277.777355600032,277.777355600032,277.777355600032,277.777355600032,278.7774096999783,278.7774096999783,x,1,0.33414839999750257,None,1st,001,2023-10-09_11h26.41.525,Tutorial4_MotorSequenceLearning,2023.1.3,60.00628869296868,
150,v,0,0,0,0,26,1,105,1,,,,,279.163106199936,280.1606591999298,280.1606591999298,280.1606591999298,280.1606591999298,280.1797120999545,281.1605747999856,281.1605747999856,v,1,0.2778975999681279,None,1st,001,2023-10-09_11h26.41.525,Tutorial4_MotorSequenceLearning,2023.1.3,60.00628869296868,
50,c,0,0,0,0,26,2,106,2,,,,,281.4802070999285,282.4777787999483,282.4777787999483,282.4777787999483,282.4777787999483,282.4967837999575,283.49945699993987,283.49945699993987,c,1,0.27125179988797754,None,1st,001,2023-10-09_11h26.41.525,Tutorial4_MotorSequenceLearning,2023.1.3,60.00628869296868,
-150,z,0,0,0,0,26,3,107,3,,,,,283.8112928000046,284.81064119993243,284.81064119993243,284.81064119993243,284.81064119993243,284.82958379993215,285.810417199973,285.810417199973,z,1,0.3250777000794187,None,1st,001,2023-10-09_11h26.41.525,Tutorial4_MotorSequenceLearning,2023.1.3,60.00628869296868,
-50,x,0,0,0,0,27,0,108,0,,,,,286.1797351000132,287.17725870001595,287.17725870001595,287.17725870001595,287.17725870001595,287.1965065000113,288.19388519995846,288.19388519995846,x,1,0.28569350007455796,None,1st,001,2023-10-09_11h26.41.525,Tutorial4_MotorSequenceLearning,2023.1.3,60.00628869296868,
150,v,0,0,0,0,27,1,109,1,,,,,288.53010139998514,289.5277891999576,289.5277891999576,289.5277891999576,289.5277891999576,289.5465049999766,290.5272564999759,290.5272564999759,v,1,0.42346249998081475,None,1st,001,2023-10-09_11h26.41.525,Tutorial4_MotorSequenceLearning,2023.1.3,60.00628869296868,
50,c,0,0,0,0,27,2,110,2,,,,,290.9964387000073,292.01071219996084,292.01071219996084,292.01071219996084,292.01071219996084,292.01071219996084,293.01050079998095,293.01050079998095,c,1,0.4426150000654161,None,1st,001,2023-10-09_11h26.41.525,Tutorial4_MotorSequenceLearning,2023.1.3,60.00628869296868,
-150,z,0,0,0,0,27,3,111,3,,,,,293.4966457999544,294.4941647000378,294.4941647000378,294.4941647000378,294.4941647000378,294.51301510003395,295.52760699996725,295.52760699996725,z,1,0.4268933000275865,None,1st,001,2023-10-09_11h26.41.525,Tutorial4_MotorSequenceLearning,2023.1.3,60.00628869296868,
-50,x,0,0,0,0,28,0,112,0,,,,,295.99381549993996,296.99383829999715,296.99383829999715,296.99383829999715,296.99383829999715,297.01279159996193,297.9964807999786,297.9964807999786,x,1,0.3738133000442758,None,1st,001,2023-10-09_11h26.41.525,Tutorial4_MotorSequenceLearning,2023.1.3,60.00628869296868,
150,v,0,0,0,0,28,1,113,1,,,,,298.41303779999726,299.4273028000025,299.4273028000025,299.4273028000025,299.4273028000025,299.4273028000025,300.4274989999831,300.4274989999831,v,1,0.318813499994576,None,1st,001,2023-10-09_11h26.41.525,Tutorial4_MotorSequenceLearning,2023.1.3,60.00628869296868,
50,c,0,0,0,0,28,2,114,2,,,,,300.8108212000225,301.81649669993203,301.81649669993203,301.81649669993203,301.81649669993203,301.84384300000966,302.81098009995185,302.81098009995185,c,1,0.21735049993731081,None,1st,001,2023-10-09_11h26.41.525,Tutorial4_MotorSequenceLearning,2023.1.3,60.00628869296868,
-150,z,0,0,0,0,28,3,115,3,,,,,303.07984260004014,304.0938460000325,304.0938460000325,304.0938460000325,304.0938460000325,304.0938460000325,305.09360060002655,305.09360060002655,z,1,0.5494681999552995,None,1st,001,2023-10-09_11h26.41.525,Tutorial4_MotorSequenceLearning,2023.1.3,60.00628869296868,
-50,x,0,0,0,0,29,0,116,0,,,,,305.6794995999662,306.69376129994635,306.69376129994635,306.69376129994635,306.69376129994635,306.69376129994635,307.6796458000317,307.6796458000317,x,1,0.2940272999694571,None,1st,001,2023-10-09_11h26.41.525,Tutorial4_MotorSequenceLearning,2023.1.3,60.00628869296868,
150,v,0,0,0,0,29,1,117,1,,,,,308.0128140000161,309.0103932999773,309.0103932999773,309.0103932999773,309.0103932999773,309.02949310000986,310.02696719998494,310.02696719998494,v,1,0.5345368999987841,None,1st,001,2023-10-09_11h26.41.525,Tutorial4_MotorSequenceLearning,2023.1.3,60.00628869296868,
50,c,0,0,0,0,29,2,118,2,,,,,310.59638240002096,311.5935897999443,311.5935897999443,311.5935897999443,311.5935897999443,311.61276369995903,312.62709840002935,312.62709840002935,c,1,0.33152649994008243,None,1st,001,2023-10-09_11h26.41.525,Tutorial4_MotorSequenceLearning,2023.1.3,60.00628869296868,
-150,z,0,0,0,0,29,3,119,3,,,,,312.9988977999892,313.9936521999771,313.9936521999771,313.9936521999771,313.9936521999771,314.02736409998033,314.9770441999426,314.9770441999426,z,1,0.38501679990440607,None,1st,001,2023-10-09_11h26.41.525,Tutorial4_MotorSequenceLearning,2023.1.3,60.00628869296868,
-50,x,0,0,0,0,30,0,120,0,,,,,315.39611870003864,316.3934962999774,316.3934962999774,316.3934962999774,316.3934962999774,316.4127666000277,317.42699770000763,317.42699770000763,x,1,0.2841595000354573,None,1st,001,2023-10-09_11h26.41.525,Tutorial4_MotorSequenceLearning,2023.1.3,60.00628869296868,
150,v,0,0,0,0,30,1,121,1,,,,,317.7459541000426,318.7436894000275,318.7436894000275,318.7436894000275,318.7436894000275,318.7631010999903,319.7603587999474,319.7603587999474,v,1,0.2843330000760034,None,1st,001,2023-10-09_11h26.41.525,Tutorial4_MotorSequenceLearning,2023.1.3,60.00628869296868,
50,c,0,0,0,0,30,2,122,2,,,,,320.09760540002026,321.09393870003987,321.09393870003987,321.09393870003987,321.09393870003987,321.11391650000587,322.09352370002307,322.09352370002307,c,1,0.3066403999691829,None,1st,001,2023-10-09_11h26.41.525,Tutorial4_MotorSequenceLearning,2023.1.3,60.00628869296868,
-150,z,0,0,0,0,30,3,123,3,,,,,322.44599619996734,323.4435707000084,323.4435707000084,323.4435707000084,323.4435707000084,323.46281799999997,324.46350569999777,324.46350569999777,z,1,0.2894170000217855,None,1st,001,2023-10-09_11h26.41.525,Tutorial4_MotorSequenceLearning,2023.1.3,60.00628869296868,
-50,x,0,0,0,0,31,0,124,0,,,,,324.79364359995816,325.79349069995806,325.79349069995806,325.79349069995806,325.79349069995806,325.8127626000205,326.8102674999973,326.8102674999973,x,1,0.4555053999647498,None,1st,001,2023-10-09_11h26.41.525,Tutorial4_MotorSequenceLearning,2023.1.3,60.00628869296868,
150,v,0,0,0,0,31,1,125,1,,,,,327.31262069998775,328.32727829995565,328.32727829995565,328.32727829995565,328.32727829995565,328.32727829995565,329.32731970003806,329.32731970003806,v,1,0.3030639999778941,None,1st,001,2023-10-09_11h26.41.525,Tutorial4_MotorSequenceLearning,2023.1.3,60.00628869296868,
50,c,0,0,0,0,31,2,126,2,,,,,329.69346139999107,330.6934067000402,330.6934067000402,330.6934067000402,330.6934067000402,330.71262320003007,331.6934992999304,331.6934992999304,c,1,0.2765245999908075,None,1st,001,2023-10-09_11h26.41.525,Tutorial4_MotorSequenceLearning,2023.1.3,60.00628869296868,
-150,z,0,0,0,0,31,3,127,3,,,,,331.9959739999613,332.9934912000317,332.9934912000317,332.9934912000317,332.9934912000317,333.01264750002883,334.01025549997576,334.01025549997576,z,1,0.3609382000286132,None,1st,001,2023-10-09_11h26.41.525,Tutorial4_MotorSequenceLearning,2023.1.3,60.00628869296868,
-50,x,0,0,0,0,32,0,128,0,,,,,334.4125770999817,335.41277129994705,335.41277129994705,335.41277129994705,335.41277129994705,335.4434642000124,336.4270059999544,336.4270059999544,x,1,0.2664600000716746,None,1st,001,2023-10-09_11h26.41.525,Tutorial4_MotorSequenceLearning,2023.1.3,60.00628869296868,
150,v,0,0,0,0,32,1,129,1,,,,,336.7268651999766,337.7270257000346,337.7270257000346,337.7270257000346,337.7270257000346,337.7459030000027,338.74352549994364,338.74352549994364,v,1,0.2901331000030041,None,1st,001,2023-10-09_11h26.41.525,Tutorial4_MotorSequenceLearning,2023.1.3,60.00628869296868,
50,c,0,0,0,0,32,2,130,2,,,,,339.07677409995813,340.0768533999799,340.0768533999799,340.0768533999799,340.0768533999799,340.09591719997115,341.076562799979,341.076562799979,c,1,0.29091509990394115,None,1st,001,2023-10-09_11h26.41.525,Tutorial4_MotorSequenceLearning,2023.1.3,60.00628869296868,
-150,z,0,0,0,0,32,3,131,3,,,,,341.41306679998524,342.3958341999678,342.3958341999678,342.3958341999678,342.3958341999678,342.4130969999824,343.4268870999804,343.4268870999804,z,1,0.27960130001883954,None,1st,001,2023-10-09_11h26.41.525,Tutorial4_MotorSequenceLearning,2023.1.3,60.00628869296868,
-50,x,0,0,0,0,33,0,132,0,,,,,343.7459606999764,344.76051009993535,344.76051009993535,344.76051009993535,344.76051009993535,344.76051009993535,345.76171709992923,345.76171709992923,x,1,0.3803244000300765,None,1st,001,2023-10-09_11h26.41.525,Tutorial4_MotorSequenceLearning,2023.1.3,60.00628869296868,
150,v,0,0,0,0,33,1,133,1,,,,,346.1792924000183,347.176635599928,347.176635599928,347.176635599928,347.176635599928,347.19582000002265,348.1937321999576,348.1937321999576,v,1,0.3797414000146091,None,1st,001,2023-10-09_11h26.41.525,Tutorial4_MotorSequenceLearning,2023.1.3,60.00628869296868,
50,c,0,0,0,0,33,2,134,2,,,,,348.61015439999755,349.61682230001315,349.61682230001315,349.61682230001315,349.61682230001315,349.6435834999429,350.61050269997213,350.61050269997213,c,1,0.33562599995639175,None,1st,001,2023-10-09_11h26.41.525,Tutorial4_MotorSequenceLearning,2023.1.3,60.00628869296868,
-150,z,0,0,0,0,33,3,135,3,,,,,350.9958504999522,351.99331900000107,351.99331900000107,351.99331900000107,351.99331900000107,352.01238969992846,353.0100429999875,353.0100429999875,z,1,0.3169503000099212,None,1st,001,2023-10-09_11h26.41.525,Tutorial4_MotorSequenceLearning,2023.1.3,60.00628869296868,
-50,x,0,0,0,0,34,0,136,0,,,,,353.34636460000183,354.3601351999678,354.3601351999678,354.3601351999678,354.3601351999678,354.3601351999678,355.36017899995204,355.36017899995204,x,1,0.3239875000435859,None,1st,001,2023-10-09_11h26.41.525,Tutorial4_MotorSequenceLearning,2023.1.3,60.00628869296868,
150,v,0,0,0,0,34,1,137,1,,,,,355.7320332999807,356.7325150000397,356.7325150000397,356.7325150000397,356.7325150000397,356.7601164999651,357.7270098000299,357.7270098000299,v,1,0.33834079990629107,None,1st,001,2023-10-09_11h26.41.525,Tutorial4_MotorSequenceLearning,2023.1.3,60.00628869296868,
50,c,0,0,0,0,34,2,138,2,,,,,358.11013859999366,359.0956212999299,359.0956212999299,359.0956212999299,359.0956212999299,359.11292019998655,360.1098198000109,360.1098198000109,c,1,0.2775798999937251,None,1st,001,2023-10-09_11h26.41.525,Tutorial4_MotorSequenceLearning,2023.1.3,60.00628869296868,
-150,z,0,0,0,0,34,3,139,3,,,,,360.42954899999313,361.4271846000338,361.4271846000338,361.4271846000338,361.4271846000338,361.44612430001143,362.443591899937,362.443591899937,z,1,0.30227939994074404,None,1st,001,2023-10-09_11h26.41.525,Tutorial4_MotorSequenceLearning,2023.1.3,60.00628869296868,
-50,x,0,0,0,0,35,0,140,0,,,,,362.77995420002844,363.7933686999604,363.7933686999604,363.7933686999604,363.7933686999604,363.7933686999604,364.81013659993187,364.81013659993187,x,1,0.41857920004986227,None,1st,001,2023-10-09_11h26.41.525,Tutorial4_MotorSequenceLearning,2023.1.3,60.00628869296868,
150,v,0,0,0,0,35,1,141,1,,,,,365.2626125999959,366.2598525999347,366.2598525999347,366.2598525999347,366.2598525999347,366.2793593000388,367.276661699987,367.276661699987,v,1,0.31424340000376105,None,1st,001,2023-10-09_11h26.41.525,Tutorial4_MotorSequenceLearning,2023.1.3,60.00628869296868,
50,c,0,0,0,0,35,2,142,2,,,,,367.6122243000427,368.6097071999684,368.6097071999684,368.6097071999684,368.6097071999684,368.62924269994255,369.6268580999458,369.6268580999458,c,1,0.2594902999699116,None,1st,001,2023-10-09_11h26.41.525,Tutorial4_MotorSequenceLearning,2023.1.3,60.00628869296868,
-150,z,0,0,0,0,35,3,143,3,,,,,369.9485569000244,370.9433891000226,370.9433891000226,370.9433891000226,370.9433891000226,370.9695166000165,371.943242099951,371.943242099951,z,1,0.31093979999423027,None,1st,001,2023-10-09_11h26.41.525,Tutorial4_MotorSequenceLearning,2023.1.3,60.00628869296868,
-50,x,0,0,0,0,36,0,144,0,,,,,372.2789930999279,373.2931086999597,373.2931086999597,373.2931086999597,373.2931086999597,373.2931086999597,374.3096630999353,374.3096630999353,x,1,0.3282695000525564,None,1st,001,2023-10-09_11h26.41.525,Tutorial4_MotorSequenceLearning,2023.1.3,60.00628869296868,
150,v,0,0,0,0,36,1,145,1,,,,,374.66246270004194,375.6763762999326,375.6763762999326,375.6763762999326,375.6763762999326,375.6763762999326,376.67647629999556,376.67647629999556,v,1,0.3445984999416396,None,1st,001,2023-10-09_11h26.41.525,Tutorial4_MotorSequenceLearning,2023.1.3,60.00628869296868,
50,c,0,0,0,0,36,2,146,2,,,,,377.0657099999953,378.0607248999877,378.0607248999877,378.0607248999877,378.0607248999877,378.09293589997105,379.0770123000257,379.0770123000257,c,1,0.27001630002632737,None,1st,001,2023-10-09_11h26.41.525,Tutorial4_MotorSequenceLearning,2023.1.3,60.00628869296868,
-150,z,0,0,0,0,36,3,147,3,,,,,379.3788192999782,380.376726699993,380.376726699993,380.376726699993,380.376726699993,380.39585480000824,381.3931847999338,381.3931847999338,z,1,0.27597570000216365,None,1st,001,2023-10-09_11h26.41.525,Tutorial4_MotorSequenceLearning,2023.1.3,60.00628869296868,
-50,x,0,0,0,0,37,0,148,0,,,,,381.6975980999414,382.6934405999491,382.6934405999491,382.6934405999491,382.6934405999491,382.7269946000306,383.71055910002906,383.71055910002906,x,1,0.41153929999563843,None,1st,001,2023-10-09_11h26.41.525,Tutorial4_MotorSequenceLearning,2023.1.3,60.00628869296868,
150,v,0,0,0,0,37,1,149,1,,,,,384.18204390001483,385.17639949999284,385.17639949999284,385.17639949999284,385.17639949999284,385.20967869996093,386.16283129993826,386.16283129993826,v,1,0.20855380001012236,None,1st,001,2023-10-09_11h26.41.525,Tutorial4_MotorSequenceLearning,2023.1.3,60.00628869296868,
50,c,0,0,0,0,37,2,150,2,,,,,386.4125631999923,387.4098568999907,387.4098568999907,387.4098568999907,387.4098568999907,387.4291532000061,388.42655810003635,388.42655810003635,c,1,0.36555450002197176,None,1st,001,2023-10-09_11h26.41.525,Tutorial4_MotorSequenceLearning,2023.1.3,60.00628869296868,
-150,z,0,0,0,0,37,3,151,3,,,,,388.81225820002146,389.80995859997347,389.80995859997347,389.80995859997347,389.80995859997347,389.8290182999335,390.82637999998406,390.82637999998406,z,1,0.30508459999691695,None,1st,001,2023-10-09_11h26.41.525,Tutorial4_MotorSequenceLearning,2023.1.3,60.00628869296868,
-50,x,0,0,0,0,38,0,152,0,,,,,391.1788806000259,392.1763129000319,392.1763129000319,392.1763129000319,392.1763129000319,392.1957639999455,393.19279699993785,393.19279699993785,x,1,0.31289480009581894,None,1st,001,2023-10-09_11h26.41.525,Tutorial4_MotorSequenceLearning,2023.1.3,60.00628869296868,
150,v,0,0,0,0,38,1,153,1,,,,,393.54280819999985,394.54339160001837,394.54339160001837,394.54339160001837,394.54339160001837,394.5618243999779,395.54314870003145,395.54314870003145,v,1,0.28821900009643286,None,1st,001,2023-10-09_11h26.41.525,Tutorial4_MotorSequenceLearning,2023.1.3,60.00628869296868,
50,c,0,0,0,0,38,2,154,2,,,,,395.878629899933,396.8938486999832,396.8938486999832,396.8938486999832,396.8938486999832,396.8938486999832,397.87652139994316,397.87652139994316,c,1,0.629816300002858,None,1st,001,2023-10-09_11h26.41.525,Tutorial4_MotorSequenceLearning,2023.1.3,60.00628869296868,
-150,z,0,0,0,0,38,3,155,3,,,,,398.5463918999303,399.5600846000016,399.5600846000016,399.5600846000016,399.5600846000016,399.5600846000016,400.5762851999607,400.5762851999607,z,1,0.40709330001845956,None,1st,001,2023-10-09_11h26.41.525,Tutorial4_MotorSequenceLearning,2023.1.3,60.00628869296868,
-50,x,0,0,0,0,39,0,156,0,,,,,401.0285947000375,402.04311840003356,402.04311840003356,402.04311840003356,402.04311840003356,402.04311840003356,403.02871340001,403.02871340001,x,1,0.27282549999654293,None,1st,001,2023-10-09_11h26.41.525,Tutorial4_MotorSequenceLearning,2023.1.3,60.00628869296868,
150,v,0,0,0,0,39,1,157,1,,,,,403.3459162999643,404.3427748000249,404.3427748000249,404.3427748000249,404.3427748000249,404.36185839993414,405.329636999988,405.329636999988,v,1,0.22864360001403838,None,1st,001,2023-10-09_11h26.41.525,Tutorial4_MotorSequenceLearning,2023.1.3,60.00628869296868,
50,c,0,0,0,0,39,2,158,2,,,,,405.5927338999463,406.593104199972,406.593104199972,406.593104199972,406.593104199972,406.61263739992864,407.59301429998595,407.59301429998595,c,1,0.2868832000531256,None,1st,001,2023-10-09_11h26.41.525,Tutorial4_MotorSequenceLearning,2023.1.3,60.00628869296868,
-150,z,0,0,0,0,39,3,159,3,,,,,407.94297820003703,408.9428046999965,408.9428046999965,408.9428046999965,408.9428046999965,408.9626239000354,409.96020600001793,409.96020600001793,z,1,0.39076559990644455,None,1st,001,2023-10-09_11h26.41.525,Tutorial4_MotorSequenceLearning,2023.1.3,60.00628869296868,
-50,x,0,0,0,0,40,0,160,0,,,,,410.3955959000159,411.4094403999625,411.4094403999625,411.4094403999625,411.4094403999625,411.4094403999625,412.40956229995936,412.40956229995936,x,1,0.37579080008435994,None,1st,001,2023-10-09_11h26.41.525,Tutorial4_MotorSequenceLearning,2023.1.3,60.00628869296868,
150,v,0,0,0,0,40,1,161,1,,,,,412.8285295999376,413.84417880000547,413.84417880000547,413.84417880000547,413.84417880000547,413.84417880000547,414.8427990999771,414.8427990999771,v,1,0.3068570999894291,None,1st,001,2023-10-09_11h26.41.525,Tutorial4_MotorSequenceLearning,2023.1.3,60.00628869296868,
50,c,0,0,0,0,40,2,162,2,,,,,415.17914899997413,416.1761148000369,416.1761148000369,416.1761148000369,416.1761148000369,416.1954720999347,417.19304699997883,417.19304699997883,c,1,0.5155975000234321,None,1st,001,2023-10-09_11h26.41.525,Tutorial4_MotorSequenceLearning,2023.1.3,60.00628869296868,
-150,z,0,0,0,0,40,3,163,3,,,,,417.7485992999282,418.7485975000309,418.7485975000309,418.7485975000309,418.7485975000309,418.77634290000424,419.742756200023,419.742756200023,z,1,0.5363873000023887,None,1st,001,2023-10-09_11h26.41.525,Tutorial4_MotorSequenceLearning,2023.1.3,60.00628869296868,
-50,x,0,0,0,0,41,0,164,0,,,,,420.3121194000123,421.32630399998743,421.32630399998743,421.32630399998743,421.32630399998743,421.32630399998743,422.34277660003863,422.34277660003863,x,1,0.3578351999167353,None,1st,001,2023-10-09_11h26.41.525,Tutorial4_MotorSequenceLearning,2023.1.3,60.00628869296868,
150,v,0,0,0,0,41,1,165,1,,,,,422.72869549994357,423.7263488000026,423.7263488000026,423.7263488000026,423.7263488000026,423.7453513999935,424.74269859993365,424.74269859993365,v,1,0.43429969996213913,None,1st,001,2023-10-09_11h26.41.525,Tutorial4_MotorSequenceLearning,2023.1.3,60.00628869296868,
50,c,0,0,0,0,41,2,166,2,,,,,425.2288129000226,426.24276920000557,426.24276920000557,426.24276920000557,426.24276920000557,426.24276920000557,427.24268210004084,427.24268210004084,c,1,0.3042069999501109,None,1st,001,2023-10-09_11h26.41.525,Tutorial4_MotorSequenceLearning,2023.1.3,60.00628869296868,
-150,z,0,0,0,0,41,3,167,3,,,,,427.5953853999963,428.6096108999336,428.6096108999336,428.6096108999336,428.6096108999336,428.6096108999336,429.60936300002504,429.60936300002504,z,1,0.468208699952811,None,1st,001,2023-10-09_11h26.41.525,Tutorial4_MotorSequenceLearning,2023.1.3,60.00628869296868,
-50,x,0,0,0,0,42,0,168,0,,,,,430.12834749999456,431.1425786999753,431.1425786999753,431.1425786999753,431.1425786999753,431.1425786999753,432.1425701000262,432.1425701000262,x,1,0.4288384000537917,None,1st,001,2023-10-09_11h26.41.525,Tutorial4_MotorSequenceLearning,2023.1.3,60.00628869296868,
150,v,0,0,0,0,42,1,169,1,,,,,432.6093929000199,433.6096198000014,433.6096198000014,433.6096198000014,433.6096198000014,433.62893150001764,434.62595919996966,434.62595919996966,v,1,0.3465509000234306,None,1st,001,2023-10-09_11h26.41.525,Tutorial4_MotorSequenceLearning,2023.1.3,60.00628869296868,
50,c,0,0,0,0,42,2,170,2,,,,,435.0116856000386,436.00944029993843,436.00944029993843,436.00944029993843,436.00944029993843,436.02897670003586,437.0259498000378,437.0259498000378,c,1,0.294745699968189,None,1st,001,2023-10-09_11h26.41.525,Tutorial4_MotorSequenceLearning,2023.1.3,60.00628869296868,
-150,z,0,0,0,0,42,3,171,3,,,,,437.3456322000129,438.34269039996434,438.34269039996434,438.34269039996434,438.34269039996434,438.36145500000566,439.36015960003715,439.36015960003715,z,1,0.3314853999763727,None,1st,001,2023-10-09_11h26.41.525,Tutorial4_MotorSequenceLearning,2023.1.3,60.00628869296868,
-50,x,0,0,0,0,43,0,172,0,,,,,439.7119507000316,440.7093429999659,440.7093429999659,440.7093429999659,440.7093429999659,440.72851079993416,441.7258481000317,441.7258481000317,x,1,0.2881209999322891,None,1st,001,2023-10-09_11h26.41.525,Tutorial4_MotorSequenceLearning,2023.1.3,60.00628869296868,
150,v,0,0,0,0,43,1,173,1,,,,,442.0453788000159,443.04278699995484,443.04278699995484,443.04278699995484,443.04278699995484,443.0616032000398,444.05933119996917,444.05933119996917,v,1,0.4623336000367999,None,1st,001,2023-10-09_11h26.41.525,Tutorial4_MotorSequenceLearning,2023.1.3,60.00628869296868,
50,c,0,0,0,0,43,2,174,2,,,,,444.5457370999502,445.55904019996524,445.55904019996524,445.55904019996524,445.55904019996524,445.55904019996524,446.5756729999557,446.5756729999557,c,1,0.2980179999722168,None,1st,001,2023-10-09_11h26.41.525,Tutorial4_MotorSequenceLearning,2023.1.3,60.00628869296868,
-150,z,0,0,0,0,43,3,175,3,,,,,446.9117542000022,447.9090548999375,447.9090548999375,447.9090548999375,447.9090548999375,447.9422585000284,448.9091163999401,448.9091163999401,z,1,0.462995299953036,None,1st,001,2023-10-09_11h26.41.525,Tutorial4_MotorSequenceLearning,2023.1.3,60.00628869296868,
-50,x,0,0,0,0,44,0,176,0,,,,,449.4116862999508,450.40912720002234,450.40912720002234,450.40912720002234,450.40912720002234,450.42855650000274,451.4261988999788,451.4261988999788,x,1,0.36170520004816353,None,1st,001,2023-10-09_11h26.41.525,Tutorial4_MotorSequenceLearning,2023.1.3,60.00628869296868,
150,v,0,0,0,0,44,1,177,1,,,,,451.8283884000266,452.82579969998915,452.82579969998915,452.82579969998915,452.82579969998915,452.84521920001134,453.85936869995203,453.85936869995203,v,1,0.569031500024721,None,1st,001,2023-10-09_11h26.41.525,Tutorial4_MotorSequenceLearning,2023.1.3,60.00628869296868,
50,c,0,0,0,0,44,2,178,2,,,,,454.4591098999372,455.45895290002227,455.45895290002227,455.45895290002227,455.45895290002227,455.4780326000182,456.4591802000068,456.4591802000068,c,1,0.32439500000327826,None,1st,001,2023-10-09_11h26.41.525,Tutorial4_MotorSequenceLearning,2023.1.3,60.00628869296868,
-150,z,0,0,0,0,44,3,179,3,,,,,456.82820400001947,457.8258167000022,457.8258167000022,457.8258167000022,457.8258167000022,457.84498269995674,458.8426891999552,458.8426891999552,x,0,0.34475709998514503,None,1st,001,2023-10-09_11h26.41.525,Tutorial4_MotorSequenceLearning,2023.1.3,60.00628869296868,
-50,x,0,0,0,0,45,0,180,0,,,,,459.22565939999186,460.22912819997873,460.22912819997873,460.22912819997873,460.22912819997873,460.262536299997,461.2428335000295,461.2428335000295,x,1,0.5279627999989316,None,1st,001,2023-10-09_11h26.41.525,Tutorial4_MotorSequenceLearning,2023.1.3,60.00628869296868,
150,v,0,0,0,0,45,1,181,1,,,,,461.7952152999351,462.8103476000251,462.8103476000251,462.8103476000251,462.8103476000251,462.8103476000251,463.80903450003825,463.80903450003825,v,1,0.34216799994464964,None,1st,001,2023-10-09_11h26.41.525,Tutorial4_MotorSequenceLearning,2023.1.3,60.00628869296868,
50,c,0,0,0,0,45,2,182,2,,,,,464.1952406000346,465.19235619995743,465.19235619995743,465.19235619995743,465.19235619995743,465.21161270001903,466.2113968000049,466.2113968000049,c,1,0.327076300047338,None,1st,001,2023-10-09_11h26.41.525,Tutorial4_MotorSequenceLearning,2023.1.3,60.00628869296868,
-150,z,0,0,0,0,45,3,183,3,,,,,466.5782390999375,467.57628839998506,467.57628839998506,467.57628839998506,467.57628839998506,467.59478289994877,468.58092380000744,468.58092380000744,z,1,0.3724539999384433,None,1st,001,2023-10-09_11h26.41.525,Tutorial4_MotorSequenceLearning,2023.1.3,60.00628869296868,
-50,x,0,0,0,0,46,0,184,0,,,,,468.994563599932,470.0089557999745,470.0089557999745,470.0089557999745,470.0089557999745,470.0089557999745,471.02563970000483,471.02563970000483,x,1,0.29040669999085367,None,1st,001,2023-10-09_11h26.41.525,Tutorial4_MotorSequenceLearning,2023.1.3,60.00628869296868,
150,v,0,0,0,0,46,1,185,1,,,,,471.3449253999861,472.3421627000207,472.3421627000207,472.3421627000207,472.3421627000207,472.3620302999625,473.35892539995257,473.35892539995257,v,1,0.5273464999627322,None,1st,001,2023-10-09_11h26.41.525,Tutorial4_MotorSequenceLearning,2023.1.3,60.00628869296868,
50,c,0,0,0,0,46,2,186,2,,,,,473.94208920001984,474.9426592999371,474.9426592999371,474.9426592999371,474.9426592999371,474.96137070003897,475.9420175999403,475.9420175999403,c,1,0.37823949998710304,None,1st,001,2023-10-09_11h26.41.525,Tutorial4_MotorSequenceLearning,2023.1.3,60.00628869296868,
-150,z,0,0,0,0,46,3,187,3,,,,,476.35883099993225,477.34232709999196,477.34232709999196,477.34232709999196,477.34232709999196,477.3612550999969,478.3597211999586,478.3597211999586,z,1,0.46582050004508346,None,1st,001,2023-10-09_11h26.41.525,Tutorial4_MotorSequenceLearning,2023.1.3,60.00628869296868,
-50,x,0,0,0,0,47,0,188,0,,,,,478.8612128000241,479.8588725000154,479.8588725000154,479.8588725000154,479.8588725000154,479.8779471999733,480.8591512000421,480.8591512000421,x,1,0.3152752999449149,None,1st,001,2023-10-09_11h26.41.525,Tutorial4_MotorSequenceLearning,2023.1.3,60.00628869296868,
150,v,0,0,0,0,47,1,189,1,,,,,481.2087494999869,482.2088187999325,482.2088187999325,482.2088187999325,482.2088187999325,482.22775870002806,483.2089195000008,483.2089195000008,v,1,0.40499569999519736,None,1st,001,2023-10-09_11h26.41.525,Tutorial4_MotorSequenceLearning,2023.1.3,60.00628869296868,
50,c,0,0,0,0,47,2,190,2,,,,,483.64438049995806,484.642424199963,484.642424199963,484.642424199963,484.642424199963,484.66105240001343,485.6447853000136,485.6447853000136,c,1,0.5452617999399081,None,1st,001,2023-10-09_11h26.41.525,Tutorial4_MotorSequenceLearning,2023.1.3,60.00628869296868,
-150,z,0,0,0,0,47,3,191,3,,,,,486.21114949998446,487.2091723999474,487.2091723999474,487.2091723999474,487.2091723999474,487.22834829997737,488.22530649998225,488.22530649998225,z,1,0.6404772999230772,None,1st,001,2023-10-09_11h26.41.525,Tutorial4_MotorSequenceLearning,2023.1.3,60.00628869296868,
-50,x,0,0,0,0,48,0,192,0,,,,,488.9124665999552,489.9263376999879,489.9263376999879,489.9263376999879,489.9263376999879,489.9263376999879,490.925195000018,490.925195000018,x,1,0.4057200000388548,None,1st,001,2023-10-09_11h26.41.525,Tutorial4_MotorSequenceLearning,2023.1.3,60.00628869296868,
150,v,0,0,0,0,48,1,193,1,,,,,491.37779850000516,492.3752637000289,492.3752637000289,492.3752637000289,492.3752637000289,492.3944409999531,493.4088102999376,493.4088102999376,v,1,0.4983115999493748,None,1st,001,2023-10-09_11h26.41.525,Tutorial4_MotorSequenceLearning,2023.1.3,60.00628869296868,
50,c,0,0,0,0,48,2,194,2,,,,,493.941990399966,494.9422562000109,494.9422562000109,494.9422562000109,494.9422562000109,494.96108299994376,495.9588428999996,495.9588428999996,c,1,0.43713139998726547,None,1st,001,2023-10-09_11h26.41.525,Tutorial4_MotorSequenceLearning,2023.1.3,60.00628869296868,
-150,z,0,0,0,0,48,3,195,3,,,,,496.4278405000223,497.4253711999627,497.4253711999627,497.4253711999627,497.4253711999627,497.4443061000202,498.427910599974,498.427910599974,z,1,0.6352196000516415,None,1st,001,2023-10-09_11h26.41.525,Tutorial4_MotorSequenceLearning,2023.1.3,60.00628869296868,
-50,x,0,0,0,0,49,0,196,0,,,,,499.10869599995203,500.11461719998624,500.11461719998624,500.11461719998624,500.11461719998624,500.1418412999483,501.1307394999312,501.1307394999312,x,1,0.6417475999332964,None,1st,001,2023-10-09_11h26.41.525,Tutorial4_MotorSequenceLearning,2023.1.3,60.00628869296868,
150,v,0,0,0,0,49,1,197,1,,,,,501.8109168999363,502.8085259000072,502.8085259000072,502.8085259000072,502.8085259000072,502.8275673999451,503.82517950003967,503.82517950003967,v,1,0.3980398999992758,None,1st,001,2023-10-09_11h26.41.525,Tutorial4_MotorSequenceLearning,2023.1.3,60.00628869296868,
50,c,0,0,0,0,49,2,198,2,,,,,504.24461469997186,505.2585344000254,505.2585344000254,505.2585344000254,505.2585344000254,505.2585344000254,506.24584650003817,506.24584650003817,c,1,0.4074568999931216,None,1st,001,2023-10-09_11h26.41.525,Tutorial4_MotorSequenceLearning,2023.1.3,60.00628869296868,
-150,z,0,0,0,0,49,3,199,3,,,,,506.67780309997033,507.6920000000391,507.6920000000391,507.6920000000391,507.6920000000391,507.6920000000391,508.6776542000007,508.6776542000007,z,1,0.518306199926883,None,1st,001,2023-10-09_11h26.41.525,Tutorial4_MotorSequenceLearning,2023.1.3,60.00628869296868,
50,c,0,0,0,0,,,,,0,0,0,2,509.2416845000116,510.2421652999474,510.2421652999474,510.2421652999474,510.2421652999474,510.260978300008,511.24443990003783,511.24443990003783,c,1,0.44158370001241565,None,1st,001,2023-10-09_11h26.41.525,Tutorial4_MotorSequenceLearning,2023.1.3,60.00628869296868,
150,v,0,0,0,0,,,,,0,1,1,1,511.74185410002246,512.741697999998,512.741697999998,512.741697999998,512.741697999998,512.7609535999363,513.741872799932,513.741872799932,v,1,0.3562921999255195,None,1st,001,2023-10-09_11h26.41.525,Tutorial4_MotorSequenceLearning,2023.1.3,60.00628869296868,
-50,x,0,0,0,0,,,,,0,2,2,0,514.1445074999938,515.1423684000038,515.1423684000038,515.1423684000038,515.1423684000038,515.1615090999985,516.1418393999338,516.1418393999338,x,1,0.38263419992290437,None,1st,001,2023-10-09_11h26.41.525,Tutorial4_MotorSequenceLearning,2023.1.3,60.00628869296868,
-50,x,0,0,0,0,,,,,0,3,3,0,516.5449225000339,517.5589070999995,517.5589070999995,517.5589070999995,517.5589070999995,517.5589070999995,518.5443128999323,518.5443128999323,x,1,0.7795748999342322,None,1st,001,2023-10-09_11h26.41.525,Tutorial4_MotorSequenceLearning,2023.1.3,60.00628869296868,
-150,z,0,0,0,0,,,,,1,0,4,3,519.3612529999809,520.3592196999816,520.3592196999816,520.3592196999816,520.3592196999816,520.3777377000079,521.3587402999401,521.3587402999401,z,1,0.5361649999395013,None,1st,001,2023-10-09_11h26.41.525,Tutorial4_MotorSequenceLearning,2023.1.3,60.00628869296868,
50,c,0,0,0,0,,,,,1,1,5,2,521.9276152999373,522.9416288000066,522.9416288000066,522.9416288000066,522.9416288000066,522.9416288000066,523.9416642000433,523.9416642000433,c,1,0.39081539993640035,None,1st,001,2023-10-09_11h26.41.525,Tutorial4_MotorSequenceLearning,2023.1.3,60.00628869296868,
150,v,0,0,0,0,,,,,1,2,6,1,524.3776499000378,525.3755498999963,525.3755498999963,525.3755498999963,525.3755498999963,525.3942577999551,526.391705899965,526.391705899965,v,1,0.4541757999686524,None,1st,001,2023-10-09_11h26.41.525,Tutorial4_MotorSequenceLearning,2023.1.3,60.00628869296868,
150,v,0,0,0,0,,,,,1,3,7,1,526.8941272000084,527.8918174999999,527.8918174999999,527.8918174999999,527.8918174999999,527.9111215999583,528.8940883999458,528.8940883999458,v,1,0.65211659995839,None,1st,001,2023-10-09_11h26.41.525,Tutorial4_MotorSequenceLearning,2023.1.3,60.00628869296868,
150,v,0,0,0,0,,,,,2,0,8,1,529.608714299975,530.6082812999375,530.6082812999375,530.6082812999375,530.6082812999375,530.6341190999374,531.6084023999283,531.6084023999283,v,1,0.5132451999234036,None,1st,001,2023-10-09_11h26.41.525,Tutorial4_MotorSequenceLearning,2023.1.3,60.00628869296868,
-150,z,0,0,0,0,,,,,2,1,9,3,532.1439329000423,533.14159559994,533.14159559994,533.14159559994,533.14159559994,533.1607691999525,534.1583810999291,534.1583810999291,z,1,0.4928467000136152,None,1st,001,2023-10-09_11h26.41.525,Tutorial4_MotorSequenceLearning,2023.1.3,60.00628869296868,
-150,z,0,0,0,0,,,,,2,2,10,3,534.677429900039,535.6921487000072,535.6921487000072,535.6921487000072,535.6921487000072,535.6921487000072,536.6919715999393,536.6919715999393,z,1,0.4908312999177724,None,1st,001,2023-10-09_11h26.41.525,Tutorial4_MotorSequenceLearning,2023.1.3,60.00628869296868,
-150,z,0,0,0,0,,,,,2,3,11,3,537.2275571000064,538.2106616999954,538.2106616999954,538.2106616999954,538.2106616999954,538.227271999931,539.2274463999784,539.2274463999784,z,1,0.3667439999990165,None,1st,001,2023-10-09_11h26.41.525,Tutorial4_MotorSequenceLearning,2023.1.3,60.00628869296868,
50,c,0,0,0,0,,,,,3,0,12,2,539.6440040000016,540.6417768000392,540.6417768000392,540.6417768000392,540.6417768000392,540.6750975999748,541.6440279999515,541.6440279999515,c,1,0.512707999907434,None,1st,001,2023-10-09_11h26.41.525,Tutorial4_MotorSequenceLearning,2023.1.3,60.00628869296868,
-50,x,0,0,0,0,,,,,3,1,13,0,542.1776283000363,543.175089300028,543.175089300028,543.175089300028,543.175089300028,543.1938380999491,544.191465400043,544.191465400043,x,1,0.5130060999654233,None,1st,001,2023-10-09_11h26.41.525,Tutorial4_MotorSequenceLearning,2023.1.3,60.00628869296868,
50,c,0,0,0,0,,,,,3,2,14,2,544.727765699965,545.741748600034,545.741748600034,545.741748600034,545.741748600034,545.741748600034,546.7425757999299,546.7425757999299,c,1,0.3988060000119731,None,1st,001,2023-10-09_11h26.41.525,Tutorial4_MotorSequenceLearning,2023.1.3,60.00628869296868,
50,c,0,0,0,0,,,,,3,3,15,2,547.1607043000404,548.1747189000016,548.1747189000016,548.1747189000016,548.1747189000016,548.1747189000016,549.1748177999398,549.1748177999398,c,1,0.4705312999431044,None,1st,001,2023-10-09_11h26.41.525,Tutorial4_MotorSequenceLearning,2023.1.3,60.00628869296868,
-50,x,0,0,0,0,,,,,4,0,16,0,549.6771593999583,550.6915109000402,550.6915109000402,550.6915109000402,550.6915109000402,550.6915109000402,551.6753368999343,551.6753368999343,x,1,0.5058353999629617,None,1st,001,2023-10-09_11h26.41.525,Tutorial4_MotorSequenceLearning,2023.1.3,60.00628869296868,
150,v,0,0,0,0,,,,,4,1,17,1,552.2275317999301,553.2414899000432,553.2414899000432,553.2414899000432,553.2414899000432,553.2414899000432,554.2582316999324,554.2582316999324,v,1,0.4907921999692917,None,1st,001,2023-10-09_11h26.41.525,Tutorial4_MotorSequenceLearning,2023.1.3,60.00628869296868,
-150,z,0,0,0,0,,,,,4,2,18,3,554.7938341000117,555.7919124999316,555.7919124999316,555.7919124999316,555.7919124999316,555.8105618000263,556.8081284000073,556.8081284000073,z,1,0.40722119994461536,None,1st,001,2023-10-09_11h26.41.525,Tutorial4_MotorSequenceLearning,2023.1.3,60.00628869296868,
150,v,0,0,0,0,,,,,4,3,19,1,557.2437561999541,558.2589339000406,558.2589339000406,558.2589339000406,558.2589339000406,558.2589339000406,559.2583798000123,559.2583798000123,v,1,0.4437279000412673,None,1st,001,2023-10-09_11h26.41.525,Tutorial4_MotorSequenceLearning,2023.1.3,60.00628869296868,
-50,x,0,0,0,0,,,,,5,0,20,0,559.7414957999717,560.7414024999598,560.7414024999598,560.7414024999598,560.7414024999598,560.7605090000434,561.7412190999603,561.7412190999603,x,1,0.37885540002025664,None,1st,001,2023-10-09_11h26.41.525,Tutorial4_MotorSequenceLearning,2023.1.3,60.00628869296868,
150,v,0,0,0,0,,,,,5,1,21,1,562.163504099939,563.158967699972,563.158967699972,563.158967699972,563.158967699972,563.1785721000051,564.1581878999714,564.1581878999714,v,1,0.5024729000870138,None,1st,001,2023-10-09_11h26.41.525,Tutorial4_MotorSequenceLearning,2023.1.3,60.00628869296868,
50,c,0,0,0,0,,,,,5,2,22,2,564.7105295000365,565.7081142000388,565.7081142000388,565.7081142000388,565.7081142000388,565.7273750000168,566.7278719999595,566.7278719999595,c,1,0.30819730006624013,None,1st,001,2023-10-09_11h26.41.525,Tutorial4_MotorSequenceLearning,2023.1.3,60.00628869296868,
-150,z,0,0,0,0,,,,,5,3,23,3,567.074742399971,568.0747436999809,568.0747436999809,568.0747436999809,568.0747436999809,568.0942593000364,569.0746294000419,569.0746294000419,z,1,0.40265619999263436,None,1st,001,2023-10-09_11h26.41.525,Tutorial4_MotorSequenceLearning,2023.1.3,60.00628869296868,
-50,x,0,0,0,0,,,,,6,0,24,0,569.5268891999731,570.526849100017,570.526849100017,570.526849100017,570.526849100017,570.526849100017,571.5418237999547,571.5418237999547,x,1,0.366545099997893,None,1st,001,2023-10-09_11h26.41.525,Tutorial4_MotorSequenceLearning,2023.1.3,60.00628869296868,
-50,x,0,0,0,0,,,,,6,1,25,0,571.9270868999884,572.9413902999368,572.9413902999368,572.9413902999368,572.9413902999368,572.9413902999368,573.9579364999663,573.9579364999663,x,1,0.4578580000670627,None,1st,001,2023-10-09_11h26.41.525,Tutorial4_MotorSequenceLearning,2023.1.3,60.00628869296868,
-150,z,0,0,0,0,,,,,6,2,26,3,574.4437773999525,575.4580245999387,575.4580245999387,575.4580245999387,575.4580245999387,575.4580245999387,576.4580487000057,576.4580487000057,z,1,0.4906110999872908,None,1st,001,2023-10-09_11h26.41.525,Tutorial4_MotorSequenceLearning,2023.1.3,60.00628869296868,
-150,z,0,0,0,0,,,,,6,3,27,3,576.9941491000354,578.0078411999857,578.0078411999857,578.0078411999857,578.0078411999857,578.0078411999857,579.0243590000318,579.0243590000318,z,1,0.4994305999716744,None,1st,001,2023-10-09_11h26.41.525,Tutorial4_MotorSequenceLearning,2023.1.3,60.00628869296868,
-50,x,0,0,0,0,,,,,7,0,28,0,579.557924099965,580.5578501999844,580.5578501999844,580.5578501999844,580.5578501999844,580.5770746000344,581.5439686999889,581.5439686999889,x,1,0.5704320999793708,None,1st,001,2023-10-09_11h26.41.525,Tutorial4_MotorSequenceLearning,2023.1.3,60.00628869296868,
-50,x,0,0,0,0,,,,,7,1,29,0,582.1437033000402,583.1411631000228,583.1411631000228,583.1411631000228,583.1411631000228,583.1804092000239,584.1587760000257,584.1587760000257,x,1,0.4687328999862075,None,1st,001,2023-10-09_11h26.41.525,Tutorial4_MotorSequenceLearning,2023.1.3,60.00628869296868,
-50,x,0,0,0,0,,,,,7,2,30,0,584.6744203999406,585.6745614999672,585.6745614999672,585.6745614999672,585.6745614999672,585.693672799971,586.6745959999971,586.6745959999971,x,1,0.3529608000535518,None,1st,001,2023-10-09_11h26.41.525,Tutorial4_MotorSequenceLearning,2023.1.3,60.00628869296868,
50,c,0,0,0,0,,,,,7,3,31,2,587.0603450000053,588.0581521999557,588.0581521999557,588.0581521999557,588.0581521999557,588.0769260999514,589.0746310999384,589.0746310999384,c,1,0.38869439996778965,None,1st,001,2023-10-09_11h26.41.525,Tutorial4_MotorSequenceLearning,2023.1.3,60.00628869296868,
-150,z,0,0,0,0,,,,,8,0,32,3,589.5101868000347,590.5079094000394,590.5079094000394,590.5079094000394,590.5079094000394,590.5268384999363,591.5244210000383,591.5244210000383,z,1,0.43534249998629093,None,1st,001,2023-10-09_11h26.41.525,Tutorial4_MotorSequenceLearning,2023.1.3,60.00628869296868,
150,v,0,0,0,0,,,,,8,1,33,1,591.9933993000304,592.9910718000028,592.9910718000028,592.9910718000028,592.9910718000028,593.0102788000368,593.9916547000175,593.9916547000175,v,1,0.5163157000206411,None,1st,001,2023-10-09_11h26.41.525,Tutorial4_MotorSequenceLearning,2023.1.3,60.00628869296868,
150,v,0,0,0,0,,,,,8,2,34,1,594.5268892999738,595.5411837999709,595.5411837999709,595.5411837999709,595.5411837999709,595.5411837999709,596.5418676999398,596.5418676999398,v,1,0.47946049994789064,None,1st,001,2023-10-09_11h26.41.525,Tutorial4_MotorSequenceLearning,2023.1.3,60.00628869296868,
50,c,0,0,0,0,,,,,8,3,35,2,597.0438474999974,598.0410699000349,598.0410699000349,598.0410699000349,598.0410699000349,598.0748056999873,599.0776773999678,599.0776773999678,c,1,0.33809209999162704,None,1st,001,2023-10-09_11h26.41.525,Tutorial4_MotorSequenceLearning,2023.1.3,60.00628869296868,
-150,z,0,0,0,0,,,,,9,0,36,3,599.460112300003,600.4743527999381,600.4743527999381,600.4743527999381,600.4743527999381,600.4743527999381,601.457742700004,601.457742700004,z,1,0.5257146999938414,None,1st,001,2023-10-09_11h26.41.525,Tutorial4_MotorSequenceLearning,2023.1.3,60.00628869296868,
50,c,0,0,0,0,,,,,9,1,37,2,602.0103690000251,603.0081986000296,603.0081986000296,603.0081986000296,603.0081986000296,603.0268906999845,604.0107202000218,604.0107202000218,c,1,0.46569979994092137,None,1st,001,2023-10-09_11h26.41.525,Tutorial4_MotorSequenceLearning,2023.1.3,60.00628869296868,
150,v,0,0,0,0,,,,,9,2,38,1,604.5277374000289,605.5409270999953,605.5409270999953,605.5409270999953,605.5409270999953,605.5409270999953,606.540874499944,606.540874499944,v,1,0.4242423999821767,None,1st,001,2023-10-09_11h26.41.525,Tutorial4_MotorSequenceLearning,2023.1.3,60.00628869296868,
150,v,0,0,0,0,,,,,9,3,39,1,607.010004999931,608.0075712000253,608.0075712000253,608.0075712000253,608.0075712000253,608.0268302999903,609.0248390999623,609.0248390999623,v,1,0.47498319996520877,None,1st,001,2023-10-09_11h26.41.525,Tutorial4_MotorSequenceLearning,2023.1.3,60.00628869296868,
-50,x,0,0,0,0,,,,,10,0,40,0,609.5434501999989,610.5576227999991,610.5576227999991,610.5576227999991,610.5576227999991,610.5576227999991,611.5575903999852,611.5575903999852,x,1,0.5538959000259638,None,1st,001,2023-10-09_11h26.41.525,Tutorial4_MotorSequenceLearning,2023.1.3,60.00628869296868,
150,v,0,0,0,0,,,,,10,1,41,1,612.1434818999842,613.1410930999555,613.1410930999555,613.1410930999555,613.1410930999555,613.1599493999965,614.157399800024,614.157399800024,v,1,0.4532912999857217,None,1st,001,2023-10-09_11h26.41.525,Tutorial4_MotorSequenceLearning,2023.1.3,60.00628869296868,
150,v,0,0,0,0,,,,,10,2,42,1,614.6435597999953,615.6407013999997,615.6407013999997,615.6407013999997,615.6407013999997,615.6599671000149,616.657609899994,616.657609899994,v,1,0.42040970001835376,None,1st,001,2023-10-09_11h26.41.525,Tutorial4_MotorSequenceLearning,2023.1.3,60.00628869296868,
50,c,0,0,0,0,,,,,10,3,43,2,617.1341537999688,618.1464825000148,618.1464825000148,618.1464825000148,618.1464825000148,618.1742033000337,619.1633644000394,619.1633644000394,c,1,0.3905269999522716,None,1st,001,2023-10-09_11h26.41.525,Tutorial4_MotorSequenceLearning,2023.1.3,60.00628869296868,
-150,z,0,0,0,0,,,,,11,0,44,3,619.5766535999719,620.5922522000037,620.5922522000037,620.5922522000037,620.5922522000037,620.5922522000037,621.5912972999504,621.5912972999504,z,1,0.6280342000536621,None,1st,001,2023-10-09_11h26.41.525,Tutorial4_MotorSequenceLearning,2023.1.3,60.00628869296868,
150,v,0,0,0,0,,,,,11,1,45,1,622.2438058999833,623.2573403000133,623.2573403000133,623.2573403000133,623.2573403000133,623.2573403000133,624.2742073000409,624.2742073000409,v,1,0.5513250000076368,None,1st,001,2023-10-09_11h26.41.525,Tutorial4_MotorSequenceLearning,2023.1.3,60.00628869296868,
50,c,0,0,0,0,,,,,11,2,46,2,624.8768498999998,625.8740727000404,625.8740727000404,625.8740727000404,625.8740727000404,625.8930728000123,626.8741656999337,626.8741656999337,c,1,0.3601646999595687,None,1st,001,2023-10-09_11h26.41.525,Tutorial4_MotorSequenceLearning,2023.1.3,60.00628869296868,
-150,z,0,0,0,0,,,,,11,3,47,3,627.2763688999694,628.2745909999358,628.2745909999358,628.2745909999358,628.2745909999358,628.2936206000159,629.290934999939,629.290934999939,z,1,0.6980742999585345,None,1st,001,2023-10-09_11h26.41.525,Tutorial4_MotorSequenceLearning,2023.1.3,60.00628869296868,
-50,x,0,0,0,0,,,,,12,0,48,0,630.0240963000106,631.0248002000153,631.0248002000153,631.0248002000153,631.0248002000153,631.0584153999807,632.0249069000129,632.0249069000129,x,1,0.4085637000389397,None,1st,001,2023-10-09_11h26.41.525,Tutorial4_MotorSequenceLearning,2023.1.3,60.00628869296868,
150,v,0,0,0,0,,,,,12,1,49,1,632.4770439999411,633.4742838999955,633.4742838999955,633.4742838999955,633.4742838999955,633.4932459000265,634.4764237999916,634.4764237999916,v,1,0.46533889998681843,None,1st,001,2023-10-09_11h26.41.525,Tutorial4_MotorSequenceLearning,2023.1.3,60.00628869296868,
150,v,0,0,0,0,,,,,12,2,50,1,634.9938377999933,635.9913438999793,635.9913438999793,635.9913438999793,635.9913438999793,636.0098330000183,637.0076870999765,637.0076870999765,v,1,0.5876044000033289,None,1st,001,2023-10-09_11h26.41.525,Tutorial4_MotorSequenceLearning,2023.1.3,60.00628869296868,
150,v,0,0,0,0,,,,,12,3,51,1,637.6267465000274,638.6245386999799,638.6245386999799,638.6245386999799,638.6245386999799,638.644042699947,639.6406443000305,639.6406443000305,v,1,0.544374099932611,None,1st,001,2023-10-09_11h26.41.525,Tutorial4_MotorSequenceLearning,2023.1.3,60.00628869296868,
-150,z,0,0,0,0,,,,,13,0,52,3,640.2095761999954,641.2099017000291,641.2099017000291,641.2099017000291,641.2099017000291,641.2099017000291,642.2241992999334,642.2241992999334,z,1,0.600330299930647,None,1st,001,2023-10-09_11h26.41.525,Tutorial4_MotorSequenceLearning,2023.1.3,60.00628869296868,
50,c,0,0,0,0,,,,,13,1,53,2,642.8573318000417,643.8577195999678,643.8577195999678,643.8577195999678,643.8577195999678,643.8764812999871,644.8747569000116,644.8747569000116,c,1,0.6233356000157073,None,1st,001,2023-10-09_11h26.41.525,Tutorial4_MotorSequenceLearning,2023.1.3,60.00628869296868,
150,v,0,0,0,0,,,,,13,2,54,1,645.5263881999999,646.5248590999981,646.5248590999981,646.5248590999981,646.5248590999981,646.5432002999587,647.523754099966,647.523754099966,v,1,0.3745007999241352,None,1st,001,2023-10-09_11h26.41.525,Tutorial4_MotorSequenceLearning,2023.1.3,60.00628869296868,
-50,x,0,0,0,0,,,,,13,3,55,0,647.943075499963,648.9572071000002,648.9572071000002,648.9572071000002,648.9572071000002,648.9572071000002,649.9739575999556,649.9739575999556,x,1,0.49333349999506027,None,1st,001,2023-10-09_11h26.41.525,Tutorial4_MotorSequenceLearning,2023.1.3,60.00628869296868,
-150,z,0,0,0,0,,,,,14,0,56,3,650.5073190999683,651.5072977000382,651.5072977000382,651.5072977000382,651.5072977000382,651.526561900042,652.5077423999319,652.5077423999319,z,1,0.36767899990081787,None,1st,001,2023-10-09_11h26.41.525,Tutorial4_MotorSequenceLearning,2023.1.3,60.00628869296868,
-50,x,0,0,0,0,,,,,14,1,57,0,652.9267746999394,653.940576700028,653.940576700028,653.940576700028,653.940576700028,653.940576700028,654.9406029999955,654.9406029999955,x,1,0.4148069000802934,None,1st,001,2023-10-09_11h26.41.525,Tutorial4_MotorSequenceLearning,2023.1.3,60.00628869296868,
-150,z,0,0,0,0,,,,,14,2,58,3,655.3905799000058,656.3906266000122,656.3906266000122,656.3906266000122,656.3906266000122,656.4100536999758,657.3908405000111,657.3908405000111,z,1,0.6023371999617666,None,1st,001,2023-10-09_11h26.41.525,Tutorial4_MotorSequenceLearning,2023.1.3,60.00628869296868,
50,c,0,0,0,0,,,,,14,3,59,2,658.0238623999758,659.023741699988,659.023741699988,659.023741699988,659.023741699988,659.042944899993,660.040548000019,660.040548000019,c,1,0.47714600001927465,None,1st,001,2023-10-09_11h26.41.525,Tutorial4_MotorSequenceLearning,2023.1.3,60.00628869296868,
-50,x,0,0,0,0,,,,,15,0,60,0,660.5596186999464,661.5738342000404,661.5738342000404,661.5738342000404,661.5738342000404,661.5738342000404,662.557561499998,662.557561499998,x,1,0.40630150004290044,None,1st,001,2023-10-09_11h26.41.525,Tutorial4_MotorSequenceLearning,2023.1.3,60.00628869296868,
50,c,0,0,0,0,,,,,15,1,61,2,663.0102641000412,664.0076490000356,664.0076490000356,664.0076490000356,664.0076490000356,664.0270660000388,665.0237118999939,665.0237118999939,c,1,0.5627270000986755,None,1st,001,2023-10-09_11h26.41.525,Tutorial4_MotorSequenceLearning,2023.1.3,60.00628869296868,
-150,z,0,0,0,0,,,,,15,2,62,3,665.60983760003,666.6080196000403,666.6080196000403,666.6080196000403,666.6080196000403,666.6276632000227,667.6077988999896,667.6077988999896,z,1,0.5180842999834567,None,1st,001,2023-10-09_11h26.41.525,Tutorial4_MotorSequenceLearning,2023.1.3,60.00628869296868,
-50,x,0,0,0,0,,,,,15,3,63,0,668.159601100022,669.1431647000136,669.1431647000136,669.1431647000136,669.1431647000136,669.1594195000362,670.1904125999426,670.1904125999426,x,1,0.3619716999819502,None,1st,001,2023-10-09_11h26.41.525,Tutorial4_MotorSequenceLearning,2023.1.3,60.00628869296868,
50,c,0,0,0,0,,,,,16,0,64,2,670.5763090000255,671.5904612999875,671.5904612999875,671.5904612999875,671.5904612999875,671.5904612999875,672.6072305999696,672.6072305999696,c,1,0.36433660006150603,None,1st,001,2023-10-09_11h26.41.525,Tutorial4_MotorSequenceLearning,2023.1.3,60.00628869296868,
50,c,0,0,0,0,,,,,16,1,65,2,672.9926755999913,674.0074815000407,674.0074815000407,674.0074815000407,674.0074815000407,674.0074815000407,675.0070084999315,675.0070084999315,c,1,0.6450634999200702,None,1st,001,2023-10-09_11h26.41.525,Tutorial4_MotorSequenceLearning,2023.1.3,60.00628869296868,
-50,x,0,0,0,0,,,,,16,2,66,0,675.6927854999667,676.6905092999805,676.6905092999805,676.6905092999805,676.6905092999805,676.7095975000411,677.7080309999874,677.7080309999874,x,1,0.558958200039342,None,1st,001,2023-10-09_11h26.41.525,Tutorial4_MotorSequenceLearning,2023.1.3,60.00628869296868,
-50,x,0,0,0,0,,,,,16,3,67,0,678.3069876999361,679.3069603999611,679.3069603999611,679.3069603999611,679.3069603999611,679.3261555000208,680.3073707999429,680.3073707999429,x,1,0.7177217999706045,None,1st,001,2023-10-09_11h26.41.525,Tutorial4_MotorSequenceLearning,2023.1.3,60.00628869296868,
-150,z,0,0,0,0,,,,,17,0,68,3,681.0763934999704,682.0735081000021,682.0735081000021,682.0735081000021,682.0735081000021,682.0932557999622,683.0737319999607,683.0737319999607,z,1,0.378522300045006,None,1st,001,2023-10-09_11h26.41.525,Tutorial4_MotorSequenceLearning,2023.1.3,60.00628869296868,
-150,z,0,0,0,0,,,,,17,1,69,3,683.4930236999644,684.5078071999596,684.5078071999596,684.5078071999596,684.5078071999596,684.5078071999596,685.5242596999742,685.5242596999742,z,1,0.42159379995428026,None,1st,001,2023-10-09_11h26.41.525,Tutorial4_MotorSequenceLearning,2023.1.3,60.00628869296868,
150,v,0,0,0,0,,,,,17,2,70,1,685.9925148999318,687.0075233000098,687.0075233000098,687.0075233000098,687.0075233000098,687.0075233000098,688.0238688000245,688.0238688000245,v,1,0.5077996000181884,None,1st,001,2023-10-09_11h26.41.525,Tutorial4_MotorSequenceLearning,2023.1.3,60.00628869296868,
-150,z,0,0,0,0,,,,,17,3,71,3,688.5760668999283,689.5908739999868,689.5908739999868,689.5908739999868,689.5908739999868,689.5908739999868,690.5900712999282,690.5900712999282,z,1,0.58298150007613,None,1st,001,2023-10-09_11h26.41.525,Tutorial4_MotorSequenceLearning,2023.1.3,60.00628869296868,
150,v,0,0,0,0,,,,,18,0,72,1,691.2234951999271,692.2234684999567,692.2234684999567,692.2234684999567,692.2234684999567,692.242964199977,693.2235912999604,693.2235912999604,v,1,0.6011350000044331,None,1st,001,2023-10-09_11h26.41.525,Tutorial4_MotorSequenceLearning,2023.1.3,60.00628869296868,
50,c,0,0,0,0,,,,,18,1,73,2,693.8759274999611,694.8735001999885,694.8735001999885,694.8735001999885,694.8735001999885,694.8931298999814,695.8902024000417,695.8902024000417,c,1,0.6107873999280855,None,1st,001,2023-10-09_11h26.41.525,Tutorial4_MotorSequenceLearning,2023.1.3,60.00628869296868,
50,c,0,0,0,0,,,,,18,2,74,2,696.5425979000283,697.5569178999867,697.5569178999867,697.5569178999867,697.5569178999867,697.5569178999867,698.5402299000416,698.5402299000416,c,1,0.5036341000813991,None,1st,001,2023-10-09_11h26.41.525,Tutorial4_MotorSequenceLearning,2023.1.3,60.00628869296868,
-150,z,0,0,0,0,,,,,18,3,75,3,699.076304599992,700.0903011999326,700.0903011999326,700.0903011999326,700.0903011999326,700.0903011999326,701.0735048999777,701.0735048999777,z,1,0.5116990000242367,None,1st,001,2023-10-09_11h26.41.525,Tutorial4_MotorSequenceLearning,2023.1.3,60.00628869296868,
-150,z,0,0,0,0,,,,,19,0,76,3,701.6408811999718,702.6399191999808,702.6399191999808,702.6399191999808,702.6399191999808,702.6592286999803,703.6403244000394,703.6403244000394,z,1,0.4168554999632761,None,1st,001,2023-10-09_11h26.41.525,Tutorial4_MotorSequenceLearning,2023.1.3,60.00628869296868,
150,v,0,0,0,0,,,,,19,1,77,1,704.0927767000394,705.0904074000427,705.0904074000427,705.0904074000427,705.0904074000427,705.1232941999333,706.0759764999384,706.0759764999384,v,1,0.5373669998953119,None,1st,001,2023-10-09_11h26.41.525,Tutorial4_MotorSequenceLearning,2023.1.3,60.00628869296868,
-150,z,0,0,0,0,,,,,19,2,78,3,706.639899599948,707.6402801999357,707.6402801999357,707.6402801999357,707.6402801999357,707.6594521999359,708.6457120999694,708.6457120999694,z,1,0.6611282000085339,None,1st,001,2023-10-09_11h26.41.525,Tutorial4_MotorSequenceLearning,2023.1.3,60.00628869296868,
50,c,0,0,0,0,,,,,19,3,79,2,709.3400100999279,710.3403563000029,710.3403563000029,710.3403563000029,710.3403563000029,710.3599792999448,711.3399371999549,711.3399371999549,c,1,0.3731088999193162,None,1st,001,2023-10-09_11h26.41.525,Tutorial4_MotorSequenceLearning,2023.1.3,60.00628869296868,
-150,z,0,0,0,0,,,,,20,0,80,3,711.7591433000052,712.7593996999785,712.7593996999785,712.7593996999785,712.7593996999785,712.7898171000415,713.7592084000353,713.7592084000353,z,1,0.4685418999288231,None,1st,001,2023-10-09_11h26.41.525,Tutorial4_MotorSequenceLearning,2023.1.3,60.00628869296868,
50,c,0,0,0,0,,,,,20,1,81,2,714.2590736999409,715.2566918999655,715.2566918999655,715.2566918999655,715.2566918999655,715.2756883000256,716.2592960000038,716.2592960000038,c,1,0.556036000023596,None,1st,001,2023-10-09_11h26.41.525,Tutorial4_MotorSequenceLearning,2023.1.3,60.00628869296868,
50,c,0,0,0,0,,,,,20,2,82,2,716.8593091999646,717.8569742999971,717.8569742999971,717.8569742999971,717.8569742999971,717.8757513000164,718.8567179000238,718.8567179000238,c,1,0.5486557999392971,None,1st,001,2023-10-09_11h26.41.525,Tutorial4_MotorSequenceLearning,2023.1.3,60.00628869296868,
150,v,0,0,0,0,,,,,20,3,83,1,719.4399341000244,720.4405841999687,720.4405841999687,720.4405841999687,720.4405841999687,720.4590683999704,721.439905700041,721.439905700041,v,1,0.5201772999716923,None,1st,001,2023-10-09_11h26.41.525,Tutorial4_MotorSequenceLearning,2023.1.3,60.00628869296868,
50,c,0,0,0,0,,,,,21,0,84,2,722.0089976999443,723.023018399952,723.023018399952,723.023018399952,723.023018399952,723.023018399952,724.0235941000283,724.0235941000283,c,1,0.8539279999677092,None,1st,001,2023-10-09_11h26.41.525,Tutorial4_MotorSequenceLearning,2023.1.3,60.00628869296868,
50,c,0,0,0,0,,,,,21,1,85,2,724.9156818999909,725.9290127999848,725.9290127999848,725.9290127999848,725.9290127999848,725.9564778000349,726.9451434999937,726.9451434999937,c,1,0.49658609996549785,None,1st,001,2023-10-09_11h26.41.525,Tutorial4_MotorSequenceLearning,2023.1.3,60.00628869296868,
150,v,0,0,0,0,,,,,21,2,86,1,727.4930918000173,728.4899807999609,728.4899807999609,728.4899807999609,728.4899807999609,728.508856600034,729.5064648999833,729.5064648999833,v,1,0.49535970005672425,None,1st,001,2023-10-09_11h26.41.525,Tutorial4_MotorSequenceLearning,2023.1.3,60.00628869296868,
-150,z,0,0,0,0,,,,,21,3,87,3,730.0422924000304,731.0398987999652,731.0398987999652,731.0398987999652,731.0398987999652,731.0595719999401,732.0574883000227,732.0574883000227,z,1,0.6509596999967471,None,1st,001,2023-10-09_11h26.41.525,Tutorial4_MotorSequenceLearning,2023.1.3,60.00628869296868,
-50,x,0,0,0,0,,,,,22,0,88,0,732.740072799963,733.7420132999541,733.7420132999541,733.7420132999541,733.7420132999541,733.7736339999828,734.740715199965,734.740715199965,x,1,0.59303380001802,None,1st,001,2023-10-09_11h26.41.525,Tutorial4_MotorSequenceLearning,2023.1.3,60.00628869296868,
-50,x,0,0,0,0,,,,,22,1,89,0,735.3754466000246,736.3897225999972,736.3897225999972,736.3897225999972,736.3897225999972,736.3897225999972,737.4067123000277,737.4067123000277,x,1,0.4809904999565333,None,1st,001,2023-10-09_11h26.41.525,Tutorial4_MotorSequenceLearning,2023.1.3,60.00628869296868,
150,v,0,0,0,0,,,,,22,2,90,1,737.9093106000219,738.9240542999469,738.9240542999469,738.9240542999469,738.9240542999469,738.9240542999469,739.9397689999314,739.9397689999314,v,1,0.44903010001871735,None,1st,001,2023-10-09_11h26.41.525,Tutorial4_MotorSequenceLearning,2023.1.3,60.00628869296868,
-150,z,0,0,0,0,,,,,22,3,91,3,740.4396997999866,741.4396238999907,741.4396238999907,741.4396238999907,741.4396238999907,741.4590255999938,742.4565423999447,742.4565423999447,z,1,0.4601845000870526,None,1st,001,2023-10-09_11h26.41.525,Tutorial4_MotorSequenceLearning,2023.1.3,60.00628869296868,
150,v,0,0,0,0,,,,,23,0,92,1,742.9590638999362,743.9563301999588,743.9563301999588,743.9563301999588,743.9563301999588,743.9755385000026,744.9562863999745,744.9562863999745,v,1,0.520723000052385,None,1st,001,2023-10-09_11h26.41.525,Tutorial4_MotorSequenceLearning,2023.1.3,60.00628869296868,
-50,x,0,0,0,0,,,,,23,1,93,0,745.5088694000151,746.5074351000367,746.5074351000367,746.5074351000367,746.5074351000367,746.525917800027,747.523179700016,747.523179700016,x,1,0.6384410000173375,None,1st,001,2023-10-09_11h26.41.525,Tutorial4_MotorSequenceLearning,2023.1.3,60.00628869296868,
-50,x,0,0,0,0,,,,,23,2,94,0,748.2089532000246,749.2230351000326,749.2230351000326,749.2230351000326,749.2230351000326,749.2230351000326,750.2234572999878,750.2234572999878,x,1,0.5051798999775201,None,1st,001,2023-10-09_11h26.41.525,Tutorial4_MotorSequenceLearning,2023.1.3,60.00628869296868,
-50,x,0,0,0,0,,,,,23,3,95,0,750.7735678999452,751.7730096000014,751.7730096000014,751.7730096000014,751.7730096000014,751.7922262999928,752.7894954000367,752.7894954000367,x,1,0.4977735000429675,None,1st,001,2023-10-09_11h26.41.525,Tutorial4_MotorSequenceLearning,2023.1.3,60.00628869296868,
-50,x,0,0,0,0,,,,,24,0,96,0,753.3395738999825,754.3228524000151,754.3228524000151,754.3228524000151,754.3228524000151,754.3567037000321,755.3397895999951,755.3397895999951,x,1,0.4820672000059858,None,1st,001,2023-10-09_11h26.41.525,Tutorial4_MotorSequenceLearning,2023.1.3,60.00628869296868,
-150,z,0,0,0,0,,,,,24,1,97,3,755.8593062999425,756.8562898000237,756.8562898000237,756.8562898000237,756.8562898000237,756.8755528000183,757.8728284999961,757.8728284999961,z,1,0.5251581000629812,None,1st,001,2023-10-09_11h26.41.525,Tutorial4_MotorSequenceLearning,2023.1.3,60.00628869296868,
50,c,0,0,0,0,,,,,24,2,98,2,758.4423787000123,759.4562277999939,759.4562277999939,759.4562277999939,759.4562277999939,759.4562277999939,760.4561007999582,760.4561007999582,c,1,0.5565816999878734,None,1st,001,2023-10-09_11h26.41.525,Tutorial4_MotorSequenceLearning,2023.1.3,60.00628869296868,
150,v,0,0,0,0,,,,,24,3,99,1,761.0420943000354,762.0561003999319,762.0561003999319,762.0561003999319,762.0561003999319,762.0561003999319,763.039678900037,763.039678900037,v,1,0.6266124000540003,None,1st,001,2023-10-09_11h26.41.525,Tutorial4_MotorSequenceLearning,2023.1.3,60.00628869296868,
-50,x,0,0,0,0,,,,,25,0,100,0,763.7061790999724,764.706078600022,764.706078600022,764.706078600022,764.706078600022,764.7256323000183,765.7064369999571,765.7064369999571,x,1,0.33123800007160753,None,1st,001,2023-10-09_11h26.41.525,Tutorial4_MotorSequenceLearning,2023.1.3,60.00628869296868,
-50,x,0,0,0,0,,,,,25,1,101,0,766.0734215000411,767.0729844999732,767.0729844999732,767.0729844999732,767.0729844999732,767.0924986000173,768.073358100024,768.073358100024,x,1,0.42497040005400777,None,1st,001,2023-10-09_11h26.41.525,Tutorial4_MotorSequenceLearning,2023.1.3,60.00628869296868,
-50,x,0,0,0,0,,,,,25,2,102,0,768.5257069999352,769.5229239999317,769.5229239999317,769.5229239999317,769.5229239999317,769.5423784999875,770.5395220000064,770.5395220000064,x,1,0.3375823999522254,None,1st,001,2023-10-09_11h26.41.525,Tutorial4_MotorSequenceLearning,2023.1.3,60.00628869296868,
150,v,0,0,0,0,,,,,25,3,103,1,770.92542460002,771.9228279000381,771.9228279000381,771.9228279000381,771.9228279000381,771.942336600041,772.9561075000092,772.9561075000092,v,1,0.47277049999684095,None,1st,001,2023-10-09_11h26.41.525,Tutorial4_MotorSequenceLearning,2023.1.3,60.00628869296868,
-50,x,0,0,0,0,,,,,26,0,104,0,773.458702199976,774.4729063999839,774.4729063999839,774.4729063999839,774.4729063999839,774.4729063999839,775.490211199969,775.490211199969,x,1,0.48652290005702525,None,1st,001,2023-10-09_11h26.41.525,Tutorial4_MotorSequenceLearning,2023.1.3,60.00628869296868,
-150,z,0,0,0,0,,,,,26,1,105,3,776.0087955000345,777.0231277999701,777.0231277999701,777.0231277999701,777.0231277999701,777.0231277999701,778.0392973000417,778.0392973000417,z,1,0.37966119998600334,None,1st,001,2023-10-09_11h26.41.525,Tutorial4_MotorSequenceLearning,2023.1.3,60.00628869296868,
50,c,0,0,0,0,,,,,26,2,106,2,778.4418048999505,779.4564420999959,779.4564420999959,779.4564420999959,779.4564420999959,779.4564420999959,780.4565458999714,780.4565458999714,c,1,0.6320404000580311,None,1st,001,2023-10-09_11h26.41.525,Tutorial4_MotorSequenceLearning,2023.1.3,60.00628869296868,
150,v,0,0,0,0,,,,,26,3,107,1,781.1230631000362,782.1234285000246,782.1234285000246,782.1234285000246,782.1234285000246,782.1418150999816,783.1227941999678,783.1227941999678,v,1,0.4960136000299826,None,1st,001,2023-10-09_11h26.41.525,Tutorial4_MotorSequenceLearning,2023.1.3,60.00628869296868,
-150,z,0,0,0,0,,,,,27,0,108,3,783.658488099929,784.6742732999846,784.6742732999846,784.6742732999846,784.6742732999846,784.6742732999846,785.6724465999287,785.6724465999287,z,1,0.5568796000443399,None,1st,001,2023-10-09_11h26.41.525,Tutorial4_MotorSequenceLearning,2023.1.3,60.00628869296868,
50,c,0,0,0,0,,,,,27,1,109,2,786.2586779999547,787.2727357000113,787.2727357000113,787.2727357000113,787.2727357000113,787.2727357000113,788.2893638999667,788.2893638999667,c,1,0.6171167000429705,None,1st,001,2023-10-09_11h26.41.525,Tutorial4_MotorSequenceLearning,2023.1.3,60.00628869296868,
-50,x,0,0,0,0,,,,,27,2,110,0,788.9395771999843,789.9393340999959,789.9393340999959,789.9393340999959,789.9393340999959,789.9587219000096,790.941611199989,790.941611199989,x,1,0.5958706000819802,None,1st,001,2023-10-09_11h26.41.525,Tutorial4_MotorSequenceLearning,2023.1.3,60.00628869296868,
-150,z,0,0,0,0,,,,,27,3,111,3,791.558605600032,792.5729575000005,792.5729575000005,792.5729575000005,792.5729575000005,792.5729575000005,793.573197199963,793.573197199963,z,1,0.7060629000188783,None,1st,001,2023-10-09_11h26.41.525,Tutorial4_MotorSequenceLearning,2023.1.3,60.00628869296868,
50,c,0,0,0,0,,,,,28,0,112,2,794.3250446999446,795.3224800999742,795.3224800999742,795.3224800999742,795.3224800999742,795.3418740000343,796.3228029999882,796.3228029999882,c,1,0.48916490003466606,None,1st,001,2023-10-09_11h26.41.525,Tutorial4_MotorSequenceLearning,2023.1.3,60.00628869296868,
50,c,0,0,0,0,,,,,28,1,113,2,796.8587101999437,797.8725801999681,797.8725801999681,797.8725801999681,797.8725801999681,797.8725801999681,798.8894102999475,798.8894102999475,c,1,0.6185445000883192,None,1st,001,2023-10-09_11h26.41.525,Tutorial4_MotorSequenceLearning,2023.1.3,60.00628869296868,
150,v,0,0,0,0,,,,,28,2,114,1,799.5416909999913,800.5393220999977,800.5393220999977,800.5393220999977,800.5393220999977,800.5589923999505,801.5580057000043,801.5580057000043,v,1,0.6269505999516696,None,1st,001,2023-10-09_11h26.41.525,Tutorial4_MotorSequenceLearning,2023.1.3,60.00628869296868,
-150,z,0,0,0,0,,,,,28,3,115,3,802.2249963999493,803.2394667000044,803.2394667000044,803.2394667000044,803.2394667000044,803.2394667000044,804.2394867000403,804.2394867000403,x,0,0.4465525000123307,None,1st,001,2023-10-09_11h26.41.525,Tutorial4_MotorSequenceLearning,2023.1.3,60.00628869296868,
-50,x,0,0,0,0,,,,,29,0,116,0,804.725287499954,805.7228864999488,805.7228864999488,805.7228864999488,805.7228864999488,805.743089399999,806.7225062999642,806.7225062999642,x,1,0.5717855000402778,None,1st,001,2023-10-09_11h26.41.525,Tutorial4_MotorSequenceLearning,2023.1.3,60.00628869296868,
50,c,0,0,0,0,,,,,29,1,117,2,807.3418058999814,808.3559415999334,808.3559415999334,808.3559415999334,808.3559415999334,808.3559415999334,809.355773099931,809.355773099931,c,1,0.396627499954775,None,1st,001,2023-10-09_11h26.41.525,Tutorial4_MotorSequenceLearning,2023.1.3,60.00628869296868,
50,c,0,0,0,0,,,,,29,2,118,2,809.7751307999715,810.7892215999309,810.7892215999309,810.7892215999309,810.7892215999309,810.7892215999309,811.789084799937,811.789084799937,c,1,0.49470819998532534,None,1st,001,2023-10-09_11h26.41.525,Tutorial4_MotorSequenceLearning,2023.1.3,60.00628869296868,
-150,z,0,0,0,0,,,,,29,3,119,3,812.3084946000017,813.3227261999855,813.3227261999855,813.3227261999855,813.3227261999855,813.3227261999855,814.3224953999743,814.3224953999743,z,1,0.4839999999385327,None,1st,001,2023-10-09_11h26.41.525,Tutorial4_MotorSequenceLearning,2023.1.3,60.00628869296868,
-50,x,0,0,0,0,,,,,30,0,120,0,814.8415471999906,815.855565899983,815.855565899983,815.855565899983,815.855565899983,815.855565899983,816.8556293000001,816.8556293000001,x,1,0.4560987000586465,None,1st,001,2023-10-09_11h26.41.525,Tutorial4_MotorSequenceLearning,2023.1.3,60.00628869296868,
150,v,0,0,0,0,,,,,30,1,121,1,817.3576953000156,818.3563179000048,818.3563179000048,818.3563179000048,818.3563179000048,818.3749442000408,819.3556013000198,819.3556013000198,v,1,0.5251744999550283,None,1st,001,2023-10-09_11h26.41.525,Tutorial4_MotorSequenceLearning,2023.1.3,60.00628869296868,
150,v,0,0,0,0,,,,,30,2,122,1,819.9246832999634,820.9248369999696,820.9248369999696,820.9248369999696,820.9248369999696,820.9248369999696,821.9251543999417,821.9251543999417,v,1,0.47607249999418855,None,1st,001,2023-10-09_11h26.41.525,Tutorial4_MotorSequenceLearning,2023.1.3,60.00628869296868,
50,c,0,0,0,0,,,,,30,3,123,2,822.4394821999595,823.4394248999888,823.4394248999888,823.4394248999888,823.4394248999888,823.458263700013,824.4560106999706,824.4560106999706,c,1,0.4713363000191748,None,1st,001,2023-10-09_11h26.41.525,Tutorial4_MotorSequenceLearning,2023.1.3,60.00628869296868,
-150,z,0,0,0,0,,,,,31,0,124,3,824.9748861000407,825.989330100012,825.989330100012,825.989330100012,825.989330100012,825.989330100012,826.9889628000092,826.9889628000092,z,1,0.850941100041382,None,1st,001,2023-10-09_11h26.41.525,Tutorial4_MotorSequenceLearning,2023.1.3,60.00628869296868,
150,v,0,0,0,0,,,,,31,1,125,1,827.891499600024,828.8893950999482,828.8893950999482,828.8893950999482,828.8893950999482,828.9081319000106,829.9223529000301,829.9223529000301,v,1,0.5123711000196636,None,1st,001,2023-10-09_11h26.41.525,Tutorial4_MotorSequenceLearning,2023.1.3,60.00628869296868,
-50,x,0,0,0,0,,,,,31,2,126,0,830.4745831999462,831.4723445000127,831.4723445000127,831.4723445000127,831.4723445000127,831.4915111999726,832.4889933000086,832.4889933000086,x,1,0.37175050005316734,None,1st,001,2023-10-09_11h26.41.525,Tutorial4_MotorSequenceLearning,2023.1.3,60.00628869296868,
50,c,0,0,0,0,,,,,31,3,127,2,832.9082797999727,833.9221831000177,833.9221831000177,833.9221831000177,833.9221831000177,833.94170700002,834.9053927999921,834.9053927999921,c,1,0.344107500044629,None,1st,001,2023-10-09_11h26.41.525,Tutorial4_MotorSequenceLearning,2023.1.3,60.00628869296868,
150,v,0,0,0,0,,,,,32,0,128,1,835.2746198000386,836.2724306000164,836.2724306000164,836.2724306000164,836.2724306000164,836.2912432999583,837.2893336999696,837.2893336999696,v,1,0.3344676000997424,None,1st,001,2023-10-09_11h26.41.525,Tutorial4_MotorSequenceLearning,2023.1.3,60.00628869296868,
50,c,0,0,0,0,,,,,32,1,129,2,837.6558611999499,838.6553884999594,838.6553884999594,838.6553884999594,838.6553884999594,838.6745639999863,839.6560976000037,839.6560976000037,c,1,0.34326470002997667,None,1st,001,2023-10-09_11h26.41.525,Tutorial4_MotorSequenceLearning,2023.1.3,60.00628869296868,
-50,x,0,0,0,0,,,,,32,2,130,0,840.0421636999818,841.0554242000217,841.0554242000217,841.0554242000217,841.0554242000217,841.0745941000059,842.0721075999318,842.0721075999318,x,1,0.32198579993564636,None,1st,001,2023-10-09_11h26.41.525,Tutorial4_MotorSequenceLearning,2023.1.3,60.00628869296868,
50,c,0,0,0,0,,,,,32,3,131,2,842.4244921000209,843.4222932000412,843.4222932000412,843.4222932000412,843.4222932000412,843.441413099994,844.4256264000433,844.4256264000433,c,1,0.6228124999906868,None,1st,001,2023-10-09_11h26.41.525,Tutorial4_MotorSequenceLearning,2023.1.3,60.00628869296868,
-150,z,0,0,0,0,,,,,33,0,132,3,845.091896399972,846.1053314999444,846.1053314999444,846.1053314999444,846.1053314999444,846.1053314999444,847.1230363999493,847.1230363999493,z,1,0.41616209992207587,None,1st,001,2023-10-09_11h26.41.525,Tutorial4_MotorSequenceLearning,2023.1.3,60.00628869296868,
150,v,0,0,0,0,,,,,33,1,133,1,847.5744060999714,848.5721867999528,848.5721867999528,848.5721867999528,848.5721867999528,848.5917337000137,849.5719919999829,849.5719919999829,v,1,0.7135219000047073,None,1st,001,2023-10-09_11h26.41.525,Tutorial4_MotorSequenceLearning,2023.1.3,60.00628869296868,
-50,x,0,0,0,0,,,,,33,2,134,0,850.3080097000347,851.3054764999542,851.3054764999542,851.3054764999542,851.3054764999542,851.3244779999368,852.3224067999981,852.3224067999981,x,1,0.3550430000759661,None,1st,001,2023-10-09_11h26.41.525,Tutorial4_MotorSequenceLearning,2023.1.3,60.00628869296868,
150,v,0,0,0,0,,,,,33,3,135,1,852.7078325999901,853.7056377000408,853.7056377000408,853.7056377000408,853.7056377000408,853.7243697999511,854.7220291999402,854.7220291999402,v,1,0.46494559990242124,None,1st,001,2023-10-09_11h26.41.525,Tutorial4_MotorSequenceLearning,2023.1.3,60.00628869296868,
150,v,0,0,0,0,,,,,34,0,136,1,855.2219078999478,856.2244181999704,856.2244181999704,856.2244181999704,856.2244181999704,856.2244181999704,857.238983499934,857.238983499934,v,1,0.4493720999453217,None,1st,001,2023-10-09_11h26.41.525,Tutorial4_MotorSequenceLearning,2023.1.3,60.00628869296868,
-150,z,0,0,0,0,,,,,34,1,137,3,857.7253785999492,858.7220152999507,858.7220152999507,858.7220152999507,858.7220152999507,858.7411644000094,859.7386580000166,859.7386580000166,z,1,0.5271490999730304,None,1st,001,2023-10-09_11h26.41.525,Tutorial4_MotorSequenceLearning,2023.1.3,60.00628869296868,
